ax,ay,az,gx,gy,gz
0.974590,0.944203,0.138588,0.915527,1.831055,0.000000
0.957989,0.948354,0.174232,1.342773,2.502441,1.953125
0.973614,0.937367,0.157630,2.014160,2.807617,0.915527
0.974590,0.933217,0.133705,-0.183105,2.014160,0.976562
0.971905,0.952504,0.174476,0.488281,2.014160,-1.220703
0.964825,0.948354,0.161781,0.549316,1.770020,0.244141
0.953106,0.948354,0.159584,0.183105,-1.220703,-0.976562
0.952129,0.952504,0.148597,0.488281,4.516602,1.953125
0.952862,0.943227,0.202797,0.488281,2.502441,1.647949
0.967510,0.949574,0.175941,2.319336,0.610352,0.854492
0.954082,0.928822,0.172279,2.685547,3.967285,2.014160
0.985577,0.942494,0.153480,2.746582,1.159668,-1.098633
0.964825,0.933705,0.169349,1.892090,0.793457,-1.098633
0.955791,0.940785,0.170814,0.000000,-0.915527,-1.953125
0.942364,0.938588,0.163246,2.136230,3.479004,0.549316
0.975323,0.934682,0.152992,1.464844,0.915527,0.061035
0.974102,0.938100,0.189857,1.525879,2.136230,3.417969
0.951641,0.955190,0.159584,2.136230,-0.793457,-0.366211
0.951397,0.941274,0.192298,2.441406,3.540039,1.220703
0.970684,0.948598,0.163246,2.197266,3.601074,1.220703
0.960674,0.942250,0.171791,1.586914,0.915527,2.014160
0.952862,0.934926,0.171547,0.305176,1.586914,1.647949
0.970196,0.940297,0.175209,2.075195,-1.403809,1.220703
0.960674,0.955190,0.161048,2.685547,4.333496,2.441406
0.967510,0.936635,0.160072,3.601074,-0.244141,-0.122070
0.966289,0.934682,0.131996,4.028320,1.770020,1.220703
0.970684,0.930287,0.158851,2.868652,1.464844,-0.976562
0.958233,0.943959,0.154701,2.441406,1.464844,-2.136230
0.947979,0.925160,0.158363,1.953125,0.976562,1.159668
0.956280,0.942738,0.173988,2.258301,2.624512,0.976562
0.960674,0.953481,0.159584,1.586914,-0.732422,0.488281
0.965313,0.940297,0.143226,0.976562,0.000000,0.976562
0.987530,0.942006,0.159828,0.976562,2.258301,2.990723
0.968243,0.940785,0.178871,1.281738,-1.708984,-3.662109
0.965557,0.944936,0.148353,1.831055,-1.831055,-0.549316
0.951641,0.928822,0.161293,1.831055,0.854492,-2.197266
0.936993,0.946645,0.167396,1.220703,0.244141,1.098633
0.964092,0.928334,0.169838,2.014160,4.699707,1.770020
0.964336,0.934926,0.167396,1.953125,-1.464844,0.610352
0.959942,0.930531,0.153968,2.380371,-1.220703,-0.732422
0.979473,0.939076,0.143226,1.525879,0.488281,0.061035
0.961407,0.939076,0.137611,1.403809,-0.305176,-0.793457
0.954082,0.949574,0.161048,0.610352,3.112793,2.502441
0.959209,0.948598,0.154945,1.464844,3.112793,2.197266
0.964092,0.935658,0.148597,2.258301,2.075195,0.122070
0.930645,0.924916,0.147132,1.281738,-2.624512,-0.183105
0.984600,0.928334,0.172035,1.525879,1.098633,2.075195
0.950420,0.947865,0.140541,2.990723,1.525879,2.258301
0.960430,0.934193,0.145423,2.319336,1.098633,2.136230
0.944805,0.939809,0.171302,1.037598,4.272461,1.770020
0.966045,0.933217,0.152748,1.037598,-1.037598,1.220703
0.973125,0.924428,0.141517,1.159668,4.028320,0.549316
0.954082,0.949330,0.156654,2.258301,3.112793,0.976562
0.968731,0.931264,0.143226,2.685547,0.061035,0.549316
0.952129,0.934682,0.153724,2.075195,2.014160,1.342773
0.943340,0.935170,0.168129,1.098633,1.342773,0.366211
0.970928,0.941518,0.136146,1.953125,2.136230,0.427246
0.968487,0.941274,0.164222,1.831055,2.746582,0.915527
0.945049,0.943959,0.138832,1.892090,1.342773,-0.305176
0.975079,0.945180,0.176918,1.098633,4.638672,3.051758
0.979473,0.928578,0.149818,1.647949,2.136230,1.953125
0.975567,0.952260,0.155433,3.479004,3.417969,1.037598
0.976299,0.943227,0.177406,3.051758,0.793457,-0.732422
0.953350,0.954457,0.170082,1.220703,2.380371,0.671387
0.965069,0.926381,0.168129,2.563477,0.061035,0.610352
0.959454,0.949574,0.160804,2.441406,5.126953,-0.915527
0.961895,0.928578,0.151527,2.136230,0.610352,0.366211
0.949200,0.927113,0.159828,2.929688,4.577637,2.746582
0.970684,0.937856,0.167152,2.807617,-0.244141,0.610352
0.957745,0.947865,0.161781,1.770020,-0.610352,-0.244141
0.979961,0.922475,0.150306,2.990723,1.281738,1.220703
0.950909,0.936147,0.173500,2.685547,2.441406,0.915527
0.947735,0.953725,0.123695,1.342773,-0.915527,0.000000
0.975323,0.935902,0.144935,1.892090,2.990723,0.915527
0.968243,0.950063,0.154457,1.342773,-0.183105,-0.854492
0.987041,0.930287,0.142494,2.807617,2.929688,1.220703
0.956768,0.937123,0.150306,1.770020,1.464844,-0.671387
0.958721,0.931264,0.162269,2.624512,2.441406,1.159668
0.970440,0.937856,0.155189,1.098633,1.220703,-0.183105
0.962871,0.931020,0.151527,2.990723,3.540039,2.746582
0.977276,0.942983,0.147621,0.610352,2.014160,0.671387
0.978252,0.939565,0.141517,1.953125,1.159668,-0.488281
0.953594,0.952992,0.148353,0.915527,4.333496,1.281738
0.965313,0.931264,0.160072,0.976562,2.624512,1.586914
0.971661,0.944203,0.165443,0.732422,3.479004,2.319336
0.943340,0.949574,0.131752,0.061035,-0.244141,1.831055
0.996319,0.931020,0.169105,1.220703,1.281738,1.159668
0.961407,0.942983,0.150062,0.061035,0.610352,1.647949
0.977520,0.931264,0.144203,1.342773,2.319336,0.488281
0.950664,0.946401,0.147377,1.342773,0.610352,0.732422
0.970928,0.952260,0.146156,0.671387,3.479004,1.708984
0.967510,0.936147,0.180091,1.220703,0.488281,0.793457
0.977032,0.952748,0.168373,2.136230,3.784180,2.075195
0.953106,0.944936,0.158119,2.441406,1.953125,0.549316
0.955547,0.912953,0.168129,2.868652,2.258301,2.136230
0.974102,0.942983,0.149086,1.220703,3.601074,1.281738
0.964580,0.939565,0.175209,1.403809,3.845215,1.342773
0.967266,0.943471,0.151039,2.014160,2.563477,0.610352
0.946758,0.917348,0.168373,0.427246,-1.281738,1.220703
0.979473,0.922963,0.158119,1.525879,2.624512,1.098633
0.971416,0.930287,0.168617,1.098633,0.976562,0.122070
0.987530,0.909535,0.118568,1.220703,-1.037598,0.610352
0.963848,0.939565,0.147377,1.647949,-7.751465,0.000000
0.946514,0.938588,0.165687,2.075195,4.150391,0.244141
0.954571,0.943715,0.200599,1.403809,0.671387,0.366211
0.927227,0.950795,0.182045,2.136230,0.854492,0.671387
0.977764,0.927846,0.126136,1.647949,3.662109,0.427246
0.971416,0.923940,0.127601,2.014160,1.342773,2.258301
0.978985,0.935170,0.107826,1.770020,2.197266,1.281738
0.984356,0.937612,0.104408,2.624512,0.244141,1.647949
0.967022,0.933705,0.176673,1.770020,1.647949,2.380371
0.929668,0.957143,0.173011,3.234863,-1.708984,2.502441
0.951397,0.916860,0.182045,1.220703,2.075195,1.953125
0.978741,0.921498,0.135414,3.173828,0.427246,-0.793457
0.977276,0.924672,0.124672,3.540039,-0.976562,-0.793457
1.023907,0.912709,0.112464,4.577637,2.014160,-1.831055
0.999248,0.931752,0.165687,6.408691,-2.136230,-5.615234
0.908184,0.965688,0.167884,7.446289,-3.540039,-7.263184
0.884502,0.955434,0.151283,3.967285,-2.563477,-3.479004
0.916485,0.946889,0.183021,3.540039,0.854492,1.708984
0.947491,0.941029,0.163246,1.892090,3.295898,2.258301
0.984356,0.935658,0.145179,1.770020,0.244141,4.760742
0.976543,0.950307,0.113441,1.770020,-3.601074,5.371094
1.034160,0.923695,0.145912,0.610352,-13.732910,8.422852
0.978741,0.942983,0.123451,6.835938,-3.051758,3.417969
1.032207,0.933217,0.155433,9.277344,3.662109,-1.281738
1.074688,0.936147,0.147621,9.826660,0.671387,-6.225586
1.137432,0.898549,0.073646,22.399902,58.105469,-17.272949
0.997784,0.966176,0.211586,19.409180,76.110840,-23.864746
0.857647,1.017201,0.139320,61.706543,206.909180,-39.306641
0.816875,1.038930,0.248939,77.941895,310.424805,-50.354004
0.557842,1.077748,0.342933,61.157227,357.482910,-75.500488
0.354961,1.149770,0.621742,60.791016,325.012207,-89.416504
0.162090,1.190053,0.719642,22.949219,272.705078,-85.083008
0.000713,1.222524,0.894935,2.014160,256.530762,-86.425781
-0.244404,1.304799,0.965248,-23.986816,174.499512,-77.880859
-0.343769,1.280873,1.038246,-19.287109,140.136719,-64.086914
-0.426289,1.285268,1.108070,-22.888184,76.232910,-50.537109
-0.393818,1.277211,1.191566,-0.427246,48.889160,-35.766602
-0.389423,1.287221,1.156166,-3.967285,16.723633,-11.474609
-0.432148,1.266469,1.077552,19.165039,-4.455566,4.272461
-0.378925,1.260610,0.968422,22.827148,-7.568359,19.165039
-0.307880,1.221059,0.897865,20.202637,-8.911133,14.953613
-0.313252,1.229360,0.885414,18.188477,0.244141,9.887695
-0.278095,1.192494,0.859047,14.099121,9.155273,6.469727
-0.256123,1.217152,0.839515,7.141113,-1.403809,11.596680
-0.394306,1.244252,0.870765,-18.737793,-8.422852,-1.464844
-0.268818,1.237660,1.094154,-9.704590,-72.387695,25.451660
-0.327656,1.321401,0.978675,-18.005371,-102.416992,30.273438
-0.148457,1.284291,0.989906,-10.131836,-120.971680,21.667480
-0.232441,1.301625,1.113929,-31.921387,-359.191895,76.171875
0.312725,1.060414,0.605873,-81.909180,-655.334473,151.367188
0.580791,1.061147,0.470863,-41.992188,-435.424805,81.848145
0.664043,1.013539,0.243568,-33.142090,-356.079102,87.829590
0.795391,0.900990,0.032386,-34.118652,-317.932129,91.857910
0.724834,0.867787,-0.171227,-12.145996,-308.776855,75.195312
0.710430,0.736684,-0.348229,-31.982422,-321.472168,88.256836
0.851299,0.642934,-0.757897,-7.873535,-291.687012,40.344238
0.584698,0.727895,-0.681481,6.896973,-132.141113,44.860840
0.630352,0.639516,-1.028405,29.846191,-53.649902,18.066406
0.660137,0.614125,-0.889244,23.803711,-30.517578,20.141602
0.589825,0.721059,-0.850426,4.089355,1.220703,-1.953125
0.615459,0.671010,-0.795739,1.098633,-21.789551,11.230469
0.539043,0.703725,-0.749596,2.502441,-11.840820,-3.662109
0.601299,0.642445,-0.793053,7.446289,2.502441,5.798340
0.652569,0.613881,-0.816246,17.700195,40.710449,-20.446777
0.685528,0.619496,-0.874352,42.602539,140.991211,-39.062500
0.928204,0.548207,-0.892174,27.099609,163.513184,-60.607910
0.927471,0.627309,-0.490075,28.076172,189.758301,-83.374023
0.801006,0.756215,-0.390953,70.007324,302.246094,-122.375488
0.771221,0.798207,-0.150231,79.406738,305.908203,-119.873047
0.682842,0.919545,0.022865,107.666016,366.149902,-127.319336
0.613506,1.027699,0.200355,63.659668,290.405273,-106.506348
0.497295,1.106068,0.366127,54.504395,305.786133,-98.083496
0.453838,1.120717,0.620033,14.770508,286.621094,-87.768555
0.212627,1.247182,0.747963,48.522949,337.280273,-119.079590
0.122051,1.250844,0.869056,-18.920898,258.361816,-112.548828
-0.259785,1.347524,1.111244,13.488770,250.244141,-125.000000
-0.287861,1.331410,1.089027,-18.127441,81.420898,-78.796387
-0.355976,1.355336,1.075355,-18.005371,62.805176,-48.645020
-0.397236,1.338490,1.100502,-22.583008,36.437988,-37.658691
-0.442646,1.370717,1.038490,0.610352,23.498535,-20.507812
-0.431660,1.294301,0.992836,1.159668,12.634277,7.568359
-0.355488,1.291371,1.192298,16.662598,-7.507324,10.986328
-0.342548,1.313100,1.136146,13.793945,-64.331055,23.742676
-0.232685,1.319692,1.183021,20.385742,-195.007324,59.875488
-0.191425,1.319936,1.056068,2.929688,-260.253906,71.411133
0.070782,1.222524,0.978431,8.178711,-398.193359,75.317383
0.197979,1.149281,0.458168,-41.198730,-561.462402,136.718750
0.582012,1.098988,0.255775,-23.193359,-320.678711,64.941406
0.572735,1.071889,0.087318,-67.993164,-400.695801,135.620117
0.522442,1.013783,-0.016686,-48.278809,-381.835938,54.687500
0.792461,0.817250,-0.390465,-67.016602,-490.966797,101.745605
0.524395,0.951772,-0.632897,5.126953,-347.656250,44.677734
0.477520,0.817006,-0.816002,8.178711,-97.534180,10.925293
0.506573,0.735707,-1.022789,26.611328,-92.712402,32.104492
0.523174,0.785024,-1.051598,22.521973,-23.498535,26.367188
0.554180,0.759145,-1.016686,14.587402,-16.174316,27.465820
0.455791,0.843861,-0.841637,10.986328,-27.526855,12.634277
0.526836,0.727651,-0.826989,8.361816,-6.835938,9.582520
0.520000,0.702992,-0.822106,30.761719,-26.977539,-0.122070
0.364971,0.721303,-0.919030,34.912109,13.549805,0.915527
0.513409,0.710561,-1.045250,23.925781,64.636230,-8.483887
0.941387,0.528676,-1.063805,21.301270,55.664062,-18.920898
0.697979,0.659535,-1.020348,63.964844,266.235352,-67.932129
0.848125,0.612416,-0.691735,48.339844,236.694336,-92.590332
0.724590,0.681752,-0.380700,41.625977,268.066406,-114.379883
0.678204,0.778920,-0.128258,81.176758,296.081543,-116.088867
0.618877,0.868764,-0.147545,55.541992,286.071777,-128.417969
0.479961,1.008412,0.106361,61.401367,346.557617,-110.107422
0.517559,1.040639,0.247474,48.645020,355.529785,-114.074707
0.410381,1.116322,0.610756,27.221680,384.094238,-124.633789
0.277813,1.163197,0.720375,17.761230,358.764648,-142.761230
0.084942,1.298940,1.103187,-6.530762,265.502930,-134.216309
-0.190205,1.367299,1.007240,8.300781,221.252441,-120.544434
-0.288349,1.398061,1.186195,-26.794434,93.872070,-67.871094
-0.353046,1.408315,1.114173,-18.310547,42.907715,-33.447266
-0.370380,1.368764,1.085365,-6.713867,35.705566,-28.808594
-0.372822,1.355824,0.982826,-10.498047,28.198242,-0.549316
-0.262959,1.263295,1.054603,-12.878418,-4.638672,5.310059
-0.315693,1.302358,1.142250,6.225586,-14.282227,20.019531
-0.200459,1.311391,1.151283,34.484863,-36.926270,14.648438
-0.271259,1.336049,1.144203,24.047852,-97.351074,35.949707
-0.121357,1.296742,1.097816,23.193359,-195.007324,50.231934
-0.141621,1.317983,0.950843,-15.502930,-344.482422,103.820801
0.418194,1.115590,0.783363,-15.380859,-415.222168,93.994141
0.361797,1.207387,0.469642,-28.503418,-339.294434,81.542969
0.639873,1.018910,0.477943,-61.218262,-378.662109,76.354980
0.434307,1.164174,0.096595,-44.799805,-393.737793,116.943359
0.879375,0.813832,0.026039,-36.743164,-364.440918,85.693359
0.670147,0.865590,-0.288659,-34.545898,-424.438477,113.159180
0.668438,0.770863,-0.567223,1.953125,-284.790039,65.185547
0.639629,0.733510,-0.854577,5.126953,-177.551270,55.908203
0.577862,0.667592,-0.814782,29.052734,-108.154297,53.161621
0.464825,0.665151,-0.867516,37.414551,-58.715820,31.982422
0.564678,0.653920,-0.870934,15.991211,-42.297363,26.855469
0.431866,0.615834,-0.973473,28.198242,-22.766113,29.846191
0.452862,0.561147,-0.832604,4.394531,-10.498047,17.883301
0.539288,0.542836,-0.885094,10.375977,-12.145996,14.648438
0.569805,0.571645,-0.925133,16.052246,7.019043,2.563477
0.639629,0.535512,-0.952477,2.319336,36.315918,-10.009766
0.530254,0.628285,-1.174889,60.913086,299.255371,-58.837891
1.030743,0.466664,-0.772057,11.108398,164.672852,-66.528320
0.705547,0.600453,-0.457116,46.630859,273.315430,-106.140137
0.769512,0.670766,-0.269371,50.415039,295.715332,-126.770020
0.743633,0.803334,-0.080162,72.204590,281.921387,-119.750977
0.684307,0.903188,0.071449,91.308594,343.505859,-141.113281
0.504620,1.048451,0.322181,67.565918,247.558594,-77.453613
0.581280,1.039418,0.446205,36.865234,236.083984,-75.744629
0.538555,1.109731,0.491371,20.568848,236.206055,-73.608398
0.429668,1.114125,0.716713,25.268555,359.130859,-142.761230
0.220440,1.216176,0.910560,50.781250,322.937012,-149.414062
-0.188984,1.394399,0.942787,8.483887,248.413086,-147.949219
-0.336445,1.464223,1.106361,-14.953613,110.046387,-78.796387
-0.217304,1.387318,1.087806,-27.648926,26.794434,-26.550293
-0.318623,1.407338,1.080238,-15.625000,35.339355,-26.367188
-0.270527,1.370717,1.017982,-9.277344,4.028320,-9.582520
-0.246113,1.326039,1.069496,-12.878418,1.647949,3.295898
-0.295673,1.321156,1.140052,10.070801,-11.901855,8.239746
-0.271015,1.335805,1.158851,9.094238,-79.040527,24.780273
-0.232197,1.357777,1.215248,18.371582,-164.855957,54.748535
0.000957,1.312856,0.998695,28.747559,-192.321777,60.485840
0.010479,1.283803,0.943519,-22.521973,-328.674316,118.347168
0.320049,1.175893,0.727699,-24.963379,-418.395996,108.398438
0.693096,1.026967,0.533363,-47.119141,-361.877441,88.867188
0.604717,1.133656,0.351234,-48.339844,-331.237793,75.927734
0.856670,0.907094,0.212318,-55.969238,-338.317871,90.454102
0.585918,1.025502,-0.086998,-43.395996,-348.754883,89.233398
0.698955,0.809682,-0.189049,-33.142090,-383.789062,82.641602
0.559063,0.802113,-0.630944,-40.100098,-442.626953,109.436035
0.465313,0.748402,-0.815026,13.977051,-80.444336,20.202637
0.594952,0.668080,-1.033776,38.208008,-85.021973,32.165527
0.475811,0.733510,-0.914391,36.926270,-14.587402,25.512695
0.444561,0.735707,-0.931481,32.836914,-11.596680,26.367188
0.501202,0.632680,-0.976647,17.883301,-28.503418,33.264160
0.517803,0.637074,-0.888024,21.911621,-0.427246,16.601562
0.532452,0.616567,-0.853356,13.122559,12.390137,5.554199
0.627911,0.581654,-1.002770,-11.840820,-9.277344,-9.704590
0.692852,0.565297,-1.079674,-9.521484,9.155273,-16.174316
0.573467,0.641957,-0.978112,-0.610352,94.360352,-38.452148
0.620830,0.632192,-0.884362,61.584473,291.381836,-65.856934
0.810528,0.540151,-0.643395,39.550781,344.543457,-93.261719
0.595196,0.719594,-0.182457,37.902832,296.936035,-104.797363
0.666973,0.830678,0.009925,51.696777,234.008789,-93.200684
0.597393,0.893666,0.049476,53.161621,247.619629,-75.744629
0.617413,0.928334,0.246742,67.687988,308.715820,-71.411133
0.624004,0.974233,0.357338,51.635742,316.223145,-96.069336
0.475323,1.089223,0.744056,72.937012,322.204590,-85.449219
0.551495,1.077748,0.691566,80.627441,353.759766,-117.309570
0.125225,1.272572,0.812416,16.601562,319.091797,-159.851074
-0.161884,1.337270,1.057289,-3.723145,230.407715,-135.192871
-0.328632,1.396108,1.153480,-30.029297,71.350098,-69.030762
-0.280048,1.337758,1.140052,-10.375977,40.527344,-33.325195
-0.287129,1.360463,1.085853,-24.108887,18.249512,-4.577637
-0.330830,1.371693,1.140541,-2.136230,1.464844,-2.319336
-0.297871,1.346059,1.187660,12.268066,-11.657715,16.906738
-0.329853,1.355336,1.176185,11.840820,-65.979004,23.437500
-0.181171,1.337026,1.271156,10.620117,-205.566406,54.687500
-0.031757,1.309438,0.973304,-2.136230,-300.415039,91.979980
0.306866,1.127797,0.863441,-16.357422,-386.169434,87.463379
0.279522,1.188344,0.488441,-34.179688,-393.981934,105.041504
0.592998,0.988149,0.505043,-46.142578,-392.517090,53.894043
0.547344,1.037221,0.099037,-58.105469,-363.464355,99.670410
0.684307,0.928334,0.130775,-36.865234,-339.233398,72.082520
0.575664,0.881459,-0.256432,-53.649902,-410.888672,120.361328
0.595196,0.775990,-0.537926,-6.042480,-366.577148,81.054688
0.637432,0.669057,-0.826256,8.605957,-195.373535,59.631348
0.613262,0.550404,-0.867760,36.682129,-134.765625,47.485352
0.379620,0.610463,-0.910729,53.344727,-21.301270,38.879395
0.514629,0.572621,-1.016442,44.067383,0.732422,19.348145
0.550518,0.588246,-1.023766,23.864746,-4.516602,28.320312
0.657696,0.531117,-0.963707,-1.159668,-7.202148,18.066406
0.507305,0.573842,-0.956139,15.808105,85.876465,-4.638672
0.728252,0.494008,-1.045006,1.403809,70.129395,-36.071777
0.523418,0.579945,-0.895348,15.014648,182.678223,-41.503906
0.915264,0.496205,-0.808922,6.225586,187.500000,-79.956055
0.760723,0.601430,-0.436608,50.537109,326.354980,-123.413086
0.722881,0.744496,-0.199303,73.120117,291.625977,-133.972168
0.599834,0.839711,-0.068200,74.707031,313.293457,-130.004883
0.487530,0.967641,0.128334,68.969727,326.538086,-122.314453
0.436993,1.056264,0.303871,57.800293,329.956055,-97.656250
0.419414,1.089711,0.611976,33.691406,357.177734,-116.882324
0.359112,1.143422,0.703041,54.321289,387.878418,-148.681641
-0.064228,1.299916,0.920082,18.859863,390.563965,-189.697266
-0.298847,1.397328,1.119056,-11.840820,135.009766,-88.684082
-0.189716,1.325551,1.128334,-34.851074,87.036133,-57.739258
-0.312519,1.322133,1.003822,-30.090332,42.114258,-44.616699
-0.328144,1.302846,1.198890,-30.334473,37.475586,-37.353516
-0.339863,1.271352,1.117591,-10.131836,-5.126953,2.563477
-0.328144,1.282826,1.184486,4.455566,-6.103516,11.718750
-0.270039,1.264027,1.138832,14.038086,-36.560059,26.916504
-0.327168,1.323110,1.242591,24.536133,-83.068848,38.879395
-0.144306,1.303334,1.095863,40.771484,-127.929688,50.109863
-0.093769,1.280141,1.038490,10.986328,-248.474121,88.989258
0.086895,1.208363,0.864173,1.770020,-383.972168,120.422363
0.384746,1.127553,0.494789,-34.790039,-426.879883,135.742188
0.442364,1.105336,0.337318,-25.939941,-327.697754,87.219238
0.596416,0.934193,0.162025,-91.613770,-475.219727,133.361816
0.548565,0.958119,-0.100426,-70.190430,-431.091309,125.671387
0.851543,0.687611,-0.243737,-42.175293,-419.860840,103.881836
0.612774,0.798451,-0.554528,3.967285,-236.450195,83.984375
0.618877,0.647817,-0.857018,11.535645,-194.396973,78.796387
0.624248,0.640736,-0.857018,5.371094,-106.933594,31.616211
0.377666,0.698354,-0.849938,55.725098,-28.015137,35.949707
0.590801,0.471303,-0.944420,50.231934,-22.460938,42.785645
0.653301,0.515004,-0.955895,16.540527,-8.178711,19.592285
0.596172,0.527455,-0.996911,24.719238,46.630859,-2.868652
0.680645,0.517201,-0.998619,9.582520,60.852051,-25.024414
0.664288,0.523549,-0.864830,-8.483887,86.730957,-25.085449
0.904034,0.464223,-0.905114,2.014160,144.958496,-57.067871
0.831280,0.528432,-0.695397,14.343262,262.695312,-97.106934
0.748272,0.662953,-0.300377,41.748047,295.654297,-125.244141
0.662579,0.769399,-0.171715,71.655273,279.418945,-118.835449
0.705303,0.849477,-0.035485,57.067871,296.081543,-124.267578
0.459698,1.037709,0.147865,63.537598,288.757324,-101.440430
0.618389,1.007924,0.373451,36.071777,275.756836,-81.237793
0.496563,1.115590,0.538734,60.852051,321.716309,-82.275391
0.343731,1.217641,0.767006,28.625488,329.650879,-113.037109
0.234600,1.271596,0.870765,55.297852,311.950684,-106.384277
-0.058613,1.317494,0.847328,-19.409180,229.614258,-112.670898
-0.227558,1.370473,1.216468,-8.789062,158.386230,-94.848633
-0.299336,1.366078,1.092933,-33.813477,49.987793,-39.733887
-0.283955,1.361195,1.144935,-10.742188,43.823242,-32.470703
-0.354755,1.357045,1.136634,-18.188477,2.624512,-0.549316
-0.320820,1.348256,1.132484,23.681641,-9.582520,6.408691
-0.291035,1.360463,1.172279,-9.155273,-140.991211,54.565430
-0.250507,1.384877,1.107582,33.813477,-110.168457,24.963379
-0.141865,1.258901,1.040443,-26.306152,-364.868164,118.225098
0.214336,1.158559,0.758705,28.686523,-282.409668,71.960449
0.542950,1.021596,0.552406,-94.299316,-497.497559,155.700684
0.484356,1.113149,0.173500,-6.286621,-255.004883,58.227539
0.802959,0.952504,0.245277,-88.134766,-332.336426,106.262207
0.593487,1.022817,0.033363,-42.602539,-260.864258,62.194824
0.767803,0.849965,-0.063073,-56.701660,-330.200195,104.064941
0.760235,0.797719,-0.336022,-38.696289,-307.250977,77.209473
0.715313,0.772817,-0.582360,-30.090332,-331.604004,83.618164
0.592510,0.696156,-0.756920,18.859863,-165.100098,51.391602
0.533916,0.636830,-0.842369,35.644531,-72.937012,28.991699
0.523174,0.680287,-0.806969,27.709961,-43.945312,24.902344
0.521954,0.595570,-0.924157,35.827637,-38.269043,40.832520
0.445293,0.600942,-0.959557,43.457031,35.339355,7.873535
0.561993,0.508656,-1.026452,30.883789,23.559570,15.869141
0.636455,0.506947,-1.031579,15.258789,75.622559,-5.126953
0.723125,0.503774,-0.881920,3.723145,108.459473,-22.827148
0.728985,0.536488,-0.720299,5.737305,120.239258,-46.569824
0.783184,0.528432,-0.620202,40.832520,234.069824,-86.364746
0.842022,0.577260,-0.510582,47.973633,276.855469,-101.379395
0.744854,0.713490,-0.147057,88.500977,363.769531,-133.544922
0.783184,0.792592,0.021888,97.534180,345.275879,-127.624512
0.571270,0.981313,0.226966,105.468750,325.805664,-118.286133
0.603252,0.991322,0.332191,83.801270,296.264648,-102.111816
0.348370,1.119985,0.533119,59.570312,351.379395,-127.014160
0.238995,1.192738,0.786293,54.870605,327.636719,-141.296387
-0.099629,1.343373,0.871009,14.282227,263.610840,-136.474609
-0.135273,1.336781,0.993324,4.211426,141.845703,-91.796875
-0.253925,1.362904,1.033119,-35.156250,101.989746,-67.138672
-0.290791,1.369008,1.120521,-27.893066,60.058594,-47.790527
-0.300312,1.311879,1.117103,-33.569336,27.587891,-19.531250
-0.326923,1.355092,1.207679,-2.441406,-1.159668,4.394531
-0.244160,1.298207,1.227943,2.319336,-18.493652,12.817383
-0.314716,1.348256,1.245765,22.277832,-70.373535,32.958984
-0.262226,1.347768,1.173744,41.320801,-123.229980,27.954102
-0.085468,1.296986,1.034095,37.780762,-189.392090,64.270020
-0.053974,1.315785,0.891517,11.352539,-230.590820,87.158203
0.279522,1.186635,0.754554,-13.000488,-339.538574,98.205566
0.325420,1.182729,0.532875,-28.320312,-338.500977,112.426758
0.358379,1.103383,0.371742,-69.885254,-359.069824,115.722656
0.697246,1.000844,0.164955,-59.082031,-385.986328,117.004395
0.558086,0.940053,0.103431,-101.806641,-434.326172,144.042969
0.576641,0.780629,-0.324791,-6.835938,-442.077637,146.850586
0.738506,0.575063,-0.596764,-51.757812,-468.322754,134.033203
0.279766,0.677358,-0.791588,41.809082,-26.794434,28.137207
0.665020,0.439809,-0.965905,31.433105,-83.557129,69.824219
0.317120,0.689565,-0.749108,43.640137,-8.911133,28.991699
0.596416,0.444936,-1.058678,34.484863,-9.033203,39.123535
0.646709,0.406606,-0.951256,15.441895,0.183105,24.719238
0.527569,0.522084,-0.840416,11.779785,25.634766,2.868652
0.571270,0.442494,-1.024743,11.108398,57.556152,-17.211914
0.684063,0.408315,-1.011071,-4.150391,48.950195,-20.996094
0.697246,0.430531,-0.928063,10.986328,145.874023,-61.706543
0.870098,0.390004,-0.668297,-2.746582,95.581055,-78.002930
0.768780,0.518422,-0.615075,60.546875,292.968750,-143.676758
0.698467,0.630727,-0.345787,63.293457,292.053223,-174.316406
0.564922,0.882436,-0.166100,65.734863,274.414062,-141.540527
0.521709,0.918813,0.030677,78.613281,317.443848,-125.244141
0.447002,1.036000,0.131996,77.636719,312.194824,-125.854492
0.370586,1.117543,0.590736,49.560547,327.697754,-100.891113
0.494854,1.148061,0.593910,62.683105,336.914062,-134.277344
0.143780,1.318959,0.852211,9.948730,284.362793,-139.099121
0.021221,1.378529,0.863197,15.625000,221.984863,-128.356934
-0.091816,1.397817,0.895423,-38.696289,142.944336,-85.266113
-0.231464,1.401723,1.016517,-34.240723,133.056641,-103.210449
-0.240742,1.304067,1.301429,-76.049805,53.344727,-48.156738
-0.403828,1.395619,1.198890,-12.023926,23.315430,-29.235840
-0.350361,1.348256,1.239173,-5.065918,18.127441,-15.441895
-0.364521,1.359242,1.259193,15.625000,-16.113281,21.301270
-0.297627,1.336781,1.138343,33.569336,-44.982910,35.766602
-0.210224,1.288686,1.106849,13.061523,-145.996094,66.223145
-0.096943,1.256703,1.016517,15.014648,-188.232422,52.795410
0.008282,1.204213,0.851722,-8.056641,-298.767090,92.346191
0.225079,1.150746,0.699379,-47.363281,-394.897461,110.351562
0.424053,1.109975,0.530677,-50.903320,-380.126953,111.694336
0.504864,1.053578,0.299964,-76.293945,-411.010742,109.680176
0.620586,0.985951,0.168373,-43.823242,-329.162598,97.045898
0.654522,0.855336,-0.043297,-60.607910,-416.931152,111.633301
0.781231,0.748402,-0.456139,-29.418945,-377.319336,100.341797
0.764385,0.678822,-0.636803,-23.315430,-395.507812,84.716797
0.410137,0.695912,-0.730553,31.982422,-71.289062,41.137695
0.442364,0.632680,-0.762536,46.508789,-64.697266,47.363281
0.407452,0.541615,-0.945885,59.997559,-17.028809,39.245605
0.457012,0.548695,-0.942711,57.006836,4.760742,44.067383
0.630596,0.422719,-1.002526,35.522461,-8.239746,26.611328
0.626690,0.440785,-0.921715,21.179199,0.610352,17.822266
0.636700,0.367299,-0.985680,17.272949,62.133789,-17.089844
0.708965,0.369252,-0.952721,-0.488281,118.225098,-44.372559
0.810039,0.404408,-0.899498,-0.488281,202.087402,-85.327148
0.912823,0.395131,-0.619713,22.766113,309.082031,-141.357422
0.789532,0.592397,-0.307702,52.185059,352.050781,-176.330566
0.545635,0.749135,-0.055016,98.388672,403.869629,-200.561523
0.471661,0.960072,0.089515,105.346680,368.103027,-175.048828
0.271954,1.142201,0.347328,85.571289,330.261230,-128.540039
0.397198,1.103139,0.483802,91.857910,356.018066,-84.106445
0.125225,1.297475,0.627357,46.081543,324.829102,-135.803223
0.119610,1.296986,0.843910,31.799316,283.508301,-142.272949
-0.270771,1.461537,0.850257,-23.925781,143.493652,-125.244141
-0.297871,1.432729,1.246009,-29.968262,73.791504,-89.477539
-0.320087,1.462514,1.066810,-3.356934,54.504395,-48.828125
-0.325214,1.436147,1.068519,-26.489258,3.234863,-12.329102
-0.292744,1.383168,1.006752,-12.817383,13.671875,-10.070801
-0.320332,1.363393,1.038246,-7.934570,-0.549316,-4.394531
-0.286152,1.332875,0.973304,9.643555,-3.540039,6.896973
-0.242695,1.276723,0.965980,5.310059,2.441406,5.004883
-0.230000,1.268422,0.933265,10.559082,-6.408691,5.920410
-0.213398,1.262807,0.900306,0.305176,-9.094238,-0.305176
-0.253925,1.273061,0.947670,-3.967285,-16.357422,8.117676
-0.279316,1.300160,0.898841,-4.699707,-5.798340,-0.061035
-0.227314,1.297963,0.945472,-0.610352,-6.591797,4.333496
-0.197773,1.288442,0.927650,-7.690430,-24.963379,9.155273
-0.193867,1.302846,0.954994,-0.915527,-8.178711,6.591797
-0.202168,1.284535,0.926185,-0.610352,-2.563477,3.051758
-0.181660,1.291127,0.950355,-1.220703,-6.652832,4.028320
-0.204121,1.282826,0.943275,3.234863,3.845215,2.380371
-0.156269,1.275258,0.938392,3.601074,-11.352539,7.690430
-0.182880,1.293813,0.911537,-0.549316,-2.563477,2.502441
-0.174091,1.259389,0.970375,-4.455566,-4.943848,4.333496
-0.158466,1.275014,0.939369,1.586914,1.464844,1.647949
-0.156757,1.275746,0.968910,-4.394531,-6.225586,2.624512
-0.170673,1.284535,0.940834,0.671387,0.671387,1.525879
-0.149189,1.261586,0.952797,-3.051758,-1.098633,1.586914
-0.145771,1.286488,0.939125,1.342773,-2.319336,2.197266
-0.149433,1.275258,0.940834,-0.305176,-3.540039,2.929688
-0.148457,1.263539,0.956459,-2.197266,-2.624512,1.647949
-0.152363,1.263783,0.953041,-5.249023,-0.610352,-0.671387
-0.154072,1.258168,0.962318,0.183105,0.793457,-0.244141
-0.143086,1.240102,0.970131,-3.112793,2.197266,-1.464844
-0.148457,1.237904,0.970375,-0.366211,-0.549316,1.098633
-0.156269,1.263295,0.980384,0.427246,4.699707,0.488281
-0.148945,1.251332,0.989418,5.004883,1.159668,1.403809
-0.156269,1.266225,0.964027,-0.854492,1.770020,-2.441406
-0.155048,1.261098,0.967445,3.540039,-0.427246,0.366211
-0.142841,1.263051,0.960609,0.610352,1.159668,0.732422
-0.157978,1.266469,0.985511,1.708984,0.305176,3.784180
-0.155048,1.244985,0.933998,1.403809,0.976562,2.380371
-0.161884,1.271352,0.975990,4.638672,5.187988,0.244141
-0.151386,1.251820,0.943031,-1.159668,-0.549316,2.746582
-0.153095,1.258656,0.973793,1.159668,0.915527,1.464844
-0.163349,1.252553,0.940101,1.464844,5.981445,0.183105
-0.126240,1.247426,0.960609,0.610352,0.671387,3.234863
-0.144795,1.259389,0.934242,0.488281,1.525879,-0.305176
-0.133808,1.250844,0.944496,0.305176,2.746582,-0.549316
-0.162617,1.253041,0.977211,2.502441,1.953125,3.723145
-0.133564,1.239125,0.969642,2.807617,-2.685547,2.746582
-0.145771,1.250356,0.953773,-1.159668,2.380371,-0.183105
-0.115254,1.265248,0.964027,2.441406,-1.953125,0.549316
-0.127705,1.262074,0.981361,3.051758,2.807617,-0.427246
-0.154804,1.256703,0.960121,2.075195,-0.061035,1.098633
-0.212666,1.265981,0.987220,-2.502441,-13.977051,8.178711
-0.051777,1.244985,0.998695,-5.065918,-59.020996,27.282715
-0.039082,1.245717,0.912025,3.784180,-16.357422,10.192871
-0.052021,1.245717,1.013099,-12.939453,-55.480957,20.446777
0.038555,1.230336,0.976478,10.986328,-20.751953,10.559082
0.062725,1.233266,0.914711,2.685547,-20.629883,11.474609
0.049786,1.224233,0.909828,10.803223,15.014648,-7.385254
-0.074482,1.255483,0.938392,1.770020,18.310547,-7.934570
0.013164,1.221303,1.077308,-12.817383,-72.265625,27.832031
0.112041,1.217397,0.948890,1.159668,-33.630371,13.183594
0.137920,1.224721,0.924964,8.056641,-6.347656,-0.793457
0.134991,1.220082,0.891029,1.159668,3.967285,-4.394531
0.020489,1.255483,0.984535,4.028320,19.287109,-8.911133
0.062237,1.215932,1.184486,-37.963867,-197.814941,77.331543
0.380352,1.178822,0.869300,20.202637,-67.504883,34.545898
0.077862,1.324330,0.972328,-40.222168,-166.259766,53.344727
0.580059,1.066762,0.827064,-28.381348,-257.202148,80.444336
0.586163,1.064076,0.648353,-7.385254,-135.986328,32.653809
0.543438,1.067006,0.672035,-30.395508,-168.334961,37.902832
0.869854,0.900746,0.504798,-46.813965,-235.717773,40.466309
0.781963,1.001820,0.400795,-21.545410,-190.734863,23.620605
0.947491,0.953481,0.246986,-24.719238,-254.821777,51.818848
0.980450,0.897572,0.064125,14.221191,-110.168457,26.367188
0.896954,0.855580,0.076820,-4.333496,-52.673340,12.207031
1.047588,0.847035,-0.049889,-5.676270,-130.737305,33.569336
1.060284,0.872670,-0.159996,6.225586,-8.972168,0.061035
0.978496,0.868031,-0.138268,2.929688,21.484375,-1.159668
1.021221,0.872670,-0.096032,-12.207031,-6.835938,-0.610352
0.970440,0.850942,-0.058190,6.286621,16.845703,-4.516602
0.981182,0.871205,-0.090905,-3.723145,-6.347656,0.976562
0.956036,0.847279,-0.032799,3.173828,1.647949,0.183105
0.952129,0.843373,-0.032067,-2.319336,0.244141,0.488281
0.933575,0.872914,-0.033287,4.211426,7.934570,7.202148
0.922344,0.862416,-0.013512,2.868652,9.826660,2.197266
0.944317,0.862172,-0.037926,2.197266,-0.427246,7.080078
0.989971,0.826527,-0.033532,-1.403809,-28.320312,12.878418
0.996563,0.836293,-0.098229,4.150391,-2.197266,3.845215
0.964336,0.849721,-0.083092,0.305176,7.812500,3.234863
0.982403,0.828725,-0.060387,-2.441406,-11.718750,5.004883
0.969952,0.841664,-0.100670,5.432129,4.516602,1.220703
0.980938,0.845570,-0.091637,-0.244141,1.464844,1.342773
0.984356,0.843129,-0.084557,-0.183105,8.056641,2.502441
0.960674,0.824086,-0.080651,1.098633,6.958008,-3.479004
0.949200,0.837758,-0.058190,-3.234863,-0.549316,3.479004
0.939190,0.824086,-0.076989,-0.427246,1.831055,-0.183105
0.958233,0.838246,-0.070153,1.159668,3.051758,3.112793
0.964092,0.820912,-0.064782,0.549316,2.746582,2.258301
0.939190,0.835317,-0.054772,0.976562,3.845215,2.197266
0.971905,0.845570,-0.071862,0.061035,0.671387,6.225586
0.958233,0.843129,-0.061852,1.403809,6.347656,0.305176
0.839092,0.826039,-0.088952,4.455566,2.624512,12.634277
0.736553,0.830434,-0.067955,1.342773,16.418457,28.259277
0.687725,0.796498,-0.062828,4.455566,16.418457,41.137695
0.870586,0.702260,-0.057213,0.427246,0.793457,53.344727
0.871319,0.673695,-0.043541,-0.976562,28.198242,54.504395
0.699932,0.696889,-0.010338,-1.647949,16.723633,67.687988
0.888653,0.487904,-0.010582,0.000000,-18.005371,84.899902
0.771709,0.504262,-0.024010,6.164551,16.662598,83.740234
0.645977,0.475942,-0.002526,7.995605,25.634766,89.050293
0.647686,0.359487,0.042884,6.835938,-8.300781,117.736816
0.682598,0.257192,0.028236,19.958496,32.165527,110.595703
0.688946,0.153188,0.041175,11.352539,13.916016,122.131348
0.600079,0.124623,0.042884,16.601562,27.099609,108.154297
0.612286,0.044057,0.078773,6.774902,38.818359,100.158691
0.572735,0.053822,0.085121,4.089355,18.798828,90.087891
0.430157,0.079213,0.045570,-1.953125,30.212402,82.397461
0.285137,0.058217,0.141273,0.549316,57.739258,85.815430
0.266094,-0.013072,0.167884,-0.976562,40.588379,88.989258
0.298321,-0.078990,0.147621,1.953125,4.455566,90.026855
0.308575,-0.051890,0.040687,0.732422,35.888672,69.458008
0.231182,-0.028453,0.177894,-0.915527,38.085938,42.480469
0.246075,-0.014049,0.141273,3.295898,2.197266,34.423828
0.126934,0.021840,0.100990,9.948730,23.986816,24.108887
0.110332,0.005971,0.211830,5.249023,27.465820,20.202637
0.111797,0.003774,0.172279,9.033203,3.234863,11.718750
0.051983,0.002797,0.128822,2.563477,-5.065918,6.591797
0.014873,0.023061,0.146400,3.173828,2.075195,1.159668
0.015362,0.011098,0.088539,2.075195,0.610352,1.953125
0.011455,0.012563,0.145668,2.807617,2.136230,2.807617
0.004620,0.013295,0.138099,-2.624512,-13.122559,1.586914
-0.047627,0.062856,0.173500,1.953125,-3.723145,1.464844
-0.078632,0.075795,0.116371,-0.488281,13.671875,3.662109
0.076397,-0.002086,0.137367,5.920410,-36.376953,9.704590
0.023663,-0.000865,0.068519,1.464844,8.483887,-6.042480
-0.046894,0.049184,0.208168,5.065918,20.935059,-3.051758
-0.046162,0.021352,0.097328,5.676270,0.366211,5.981445
0.028301,-0.002818,0.182777,1.159668,-5.798340,2.014160
-0.025166,0.016713,0.121009,7.507324,3.540039,0.976562
-0.014912,-0.002086,0.146888,0.976562,3.234863,3.356934
-0.027607,0.006215,0.164222,4.882812,5.920410,1.831055
0.017071,0.023793,0.139320,0.915527,-7.080078,2.502441
-0.038105,0.018178,0.172767,1.831055,-2.441406,2.258301
-0.005146,0.029164,0.136390,2.319336,3.906250,0.610352
-0.003925,0.011342,0.185707,3.845215,5.126953,-2.502441
-0.021992,0.007192,0.175453,2.014160,-2.746582,1.586914
-0.025166,0.023793,0.156410,1.831055,2.441406,-4.882812
0.000713,0.041371,0.170814,4.211426,0.610352,1.647949
-0.009296,0.015737,0.146400,0.244141,0.244141,-0.671387
-0.013203,0.015248,0.160316,1.831055,1.342773,-0.305176
0.025860,0.005238,0.169838,2.807617,1.708984,-3.173828
-0.018086,0.033315,0.168129,2.258301,0.549316,-0.244141
-0.008076,0.046498,0.182533,0.915527,4.272461,-3.356934
-0.028828,0.020619,0.161048,2.624512,0.244141,-0.732422
-0.012226,0.041127,0.158363,0.061035,-1.892090,1.281738
0.014385,0.008412,0.141517,2.380371,1.464844,0.976562
-0.017597,0.028676,0.170570,0.244141,-2.197266,-2.075195
0.015118,0.052358,0.155922,1.892090,0.915527,1.342773
-0.009296,0.009877,0.174476,1.159668,1.403809,0.854492
-0.008076,0.021352,0.122474,1.403809,2.563477,-1.831055
-0.005146,0.029408,0.153968,1.464844,4.089355,0.549316
-0.007099,-0.004283,0.165931,0.976562,4.455566,-1.953125
-0.006123,0.017690,0.159095,1.647949,1.281738,-0.488281
-0.013203,0.025014,0.176918,1.281738,2.014160,0.000000
0.008770,0.025746,0.157875,2.685547,1.708984,2.258301
-0.003925,0.031362,0.153236,4.089355,9.704590,-0.671387
-0.002949,0.032582,0.172767,0.732422,0.732422,0.305176
0.033672,0.015737,0.141029,0.671387,-2.807617,1.342773
0.009014,0.014516,0.161048,1.586914,7.629395,-0.732422
0.006817,0.014272,0.159095,2.685547,1.098633,-0.427246
0.017315,0.029897,0.168617,1.342773,1.831055,-1.098633
-0.001240,0.010854,0.154213,2.441406,4.638672,-0.915527
-0.004170,0.019643,0.155189,3.356934,2.563477,0.549316
-0.000263,0.031117,0.146888,1.403809,0.488281,-0.610352
-0.000507,0.024037,0.192787,1.525879,2.441406,1.953125
0.010967,0.033803,0.129310,0.427246,-1.770020,0.610352
0.010235,0.017690,0.134925,3.845215,5.859375,0.732422
0.021709,0.018666,0.147621,1.342773,-0.244141,1.037598
-0.006855,0.025502,0.156654,1.953125,4.760742,1.220703
0.022442,0.026235,0.149330,1.281738,-0.915527,3.479004
0.024639,0.019154,0.171547,0.366211,2.929688,2.685547
-0.013203,0.048451,0.164955,1.403809,-0.549316,2.136230
0.004864,0.030141,0.151771,1.525879,4.760742,0.305176
0.004620,0.019887,0.153480,2.746582,0.183105,1.770020
0.028057,0.018422,0.156410,0.488281,-1.770020,1.586914
-0.010517,0.018422,0.172523,2.685547,1.953125,2.380371
0.019512,0.028920,0.143714,1.464844,2.746582,0.488281
0.015118,0.022572,0.163002,1.037598,0.854492,1.525879
-0.008320,0.016225,0.171791,0.915527,2.746582,0.305176
-0.003925,0.015004,0.167884,1.220703,1.159668,-0.183105
-0.001972,0.041615,0.173988,1.892090,1.464844,1.342773
0.001202,0.035756,0.136879,1.831055,3.295898,1.892090
0.012676,0.031850,0.152015,1.647949,2.136230,-0.061035
0.006329,0.014516,0.165687,0.732422,0.427246,0.549316
-0.014668,0.018666,0.170082,4.272461,2.624512,2.136230
-0.010029,0.020375,0.158363,-0.671387,-0.366211,1.220703
-0.001972,0.025990,0.154945,2.807617,1.953125,0.549316
0.016094,0.036733,0.141029,-1.037598,0.610352,1.098633
-0.006611,0.026723,0.174720,1.281738,3.479004,-1.098633
-0.002461,0.008901,0.139076,0.549316,-1.037598,1.403809
-0.009052,0.024281,0.172767,0.610352,3.051758,0.488281
0.003887,0.033559,0.144691,1.220703,-1.281738,3.601074
-0.039570,0.009633,0.201820,-8.911133,-31.250000,24.963379
0.037579,-0.002086,0.115638,4.760742,27.099609,-3.234863
-0.005390,0.060414,0.209144,10.986328,8.850098,-2.319336
0.059795,0.018910,0.172035,0.183105,3.173828,0.610352
0.040752,0.009633,0.166175,4.760742,10.131836,-3.356934
-0.231953,0.030141,0.015297,-10.742188,-21.911621,17.333984
0.019512,-0.030406,0.080970,1.037598,8.300781,2.441406
0.012188,0.019887,0.148109,13.183594,19.592285,-14.221191
0.041241,0.019643,0.143714,-7.385254,-11.413574,-7.385254
-0.041279,0.051137,0.145912,-8.605957,-3.234863,4.638672
0.010235,0.031117,0.108070,-0.061035,-10.070801,5.859375
-0.069599,0.038442,0.155677,-5.798340,3.051758,1.159668
-0.052509,0.011342,0.108070,-0.488281,1.708984,4.577637
-0.004170,0.010121,0.125404,0.610352,2.380371,-0.366211
0.003399,-0.011119,0.021156,11.047363,9.643555,-1.342773
-0.055683,0.024281,0.099769,14.160156,23.498535,-4.394531
-0.011005,0.027211,0.108070,17.578125,12.573242,-2.502441
-0.034687,0.000844,0.097084,3.601074,10.559082,-1.647949
-0.020283,0.025502,0.156654,14.404297,14.038086,-0.915527
-0.014912,0.013783,0.218177,1.281738,-0.976562,-2.258301
-0.005634,0.022328,0.181312,-8.544922,-10.498047,-0.915527
-0.055683,0.045278,0.188148,-17.822266,-41.870117,1.586914
