ax,ay,az,gx,gy,gz
0.965523,1.086421,-0.026468,1.953125,-1.770020,0.000000
0.979195,1.060786,-0.014749,1.464844,-4.699707,-0.244141
0.963570,1.077143,-0.007913,-0.732422,-2.197266,1.770020
0.983101,1.070307,0.006491,-1.403809,-0.915527,1.464844
0.973580,1.073725,-0.006693,0.976562,-1.525879,0.732422
0.989693,1.084712,-0.017923,0.793457,0.610352,1.647949
0.972603,1.067378,-0.004251,-1.098633,-1.342773,0.427246
0.984810,1.062739,0.000143,0.671387,0.183105,1.586914
0.968453,1.071284,0.022116,-0.183105,0.244141,3.234863
0.983834,1.061274,-0.018900,2.075195,-1.953125,4.394531
0.987008,1.082515,-0.039163,2.014160,-0.488281,3.784180
0.982857,1.058101,0.021383,0.854492,0.427246,0.915527
0.979439,1.064448,0.033590,-0.061035,-1.037598,1.647949
1.013131,1.047114,0.005270,0.915527,-0.610352,1.220703
0.972603,1.063227,-0.030130,-0.671387,0.427246,-0.671387
0.980172,1.057612,-0.014994,-1.586914,-0.610352,0.549316
0.978707,1.054438,0.047018,-1.586914,-0.610352,-0.122070
0.985299,1.048823,0.068503,-0.122070,1.220703,-0.854492
0.988228,1.059077,0.012594,0.244141,-1.586914,-1.098633
0.965279,1.051753,-0.005472,0.122070,-0.061035,-2.380371
0.956246,1.059565,-0.006937,-1.220703,-0.915527,-1.159668
0.985543,1.046138,0.025290,0.000000,-2.136230,-2.014160
0.973336,1.053706,0.061911,0.976562,-2.563477,-2.441406
0.981637,1.053950,-0.027933,-1.281738,-0.549316,-0.183105
0.952584,1.046870,-0.063333,-3.417969,-1.708984,0.061035
0.960396,1.049556,-0.001078,-0.854492,-1.586914,0.244141
0.981637,1.059565,0.030905,-1.892090,-2.685547,-0.793457
0.982369,1.052241,0.043112,0.000000,-0.183105,-1.159668
0.992867,1.051509,0.113669,-0.488281,-0.366211,-3.417969
0.965279,1.055659,0.028708,-2.502441,2.624512,-4.028320
0.975045,1.044185,0.045797,-1.159668,-4.577637,-4.943848
0.966988,1.051753,-0.035745,1.464844,-3.234863,-4.455566
0.956490,1.049556,0.027487,-2.014160,2.441406,-2.136230
0.993111,1.073237,-0.063333,-0.732422,0.244141,-1.770020
0.979439,1.072505,-0.057962,-0.244141,-5.187988,-3.173828
0.975533,1.038813,0.055563,0.366211,-0.854492,-0.183105
0.968697,1.053706,-0.055277,-1.037598,-2.136230,-0.122070
0.966744,1.067378,-0.026712,0.366211,-3.784180,0.671387
0.988228,1.067134,-0.056497,-2.746582,-3.540039,-0.732422
0.968453,1.061763,0.021139,-1.281738,-0.854492,-0.671387
0.973092,1.057856,0.118551,-0.549316,-1.220703,-0.671387
0.967721,1.058589,0.044577,-0.854492,-2.197266,-2.014160
0.978707,1.057612,0.032126,-1.708984,-0.610352,-1.892090
0.964791,1.054683,0.047018,-0.915527,-1.892090,-3.356934
0.960641,1.064692,-0.056009,-1.342773,-0.732422,-1.892090
0.981881,1.049800,0.001608,-1.525879,1.525879,-0.793457
0.976266,1.068354,0.000387,-0.488281,-2.807617,-1.281738
0.966256,1.089595,-0.057718,-0.061035,-2.807617,-0.854492
0.977975,1.065181,-0.067972,-0.061035,-2.258301,-1.525879
0.972359,1.087641,-0.019876,-0.915527,-1.403809,0.610352
0.970406,1.053706,-0.037454,0.976562,-2.563477,-0.976562
0.972848,1.062251,-0.069925,-0.549316,-1.525879,-0.854492
0.986764,1.084468,-0.043314,-0.366211,-2.258301,0.366211
0.976266,1.069331,0.040182,1.098633,-0.854492,-1.159668
0.972603,1.074702,-0.068216,-0.122070,-2.136230,-1.098633
0.975533,1.065913,-0.072611,0.427246,0.061035,-0.671387
0.958199,1.047114,0.026510,-1.831055,0.183105,-1.403809
0.978463,1.048335,-0.038431,0.366211,-0.976562,1.037598
0.988717,1.074458,-0.085062,-0.183105,-2.929688,-1.708984
0.983346,1.070063,0.002340,-1.464844,-0.427246,0.244141
0.988473,1.058101,-0.100199,-0.671387,-0.793457,-1.037598
0.959664,1.062251,-0.042337,0.427246,-0.976562,-1.098633
0.973580,1.063960,-0.083597,-2.380371,-0.366211,-0.671387
0.970650,1.052485,-0.019388,-1.525879,-1.525879,-1.281738
0.979439,1.072505,-0.048929,-0.366211,-0.549316,-0.976562
0.982613,1.053950,-0.058206,-1.525879,-0.366211,-1.159668
0.983346,1.081050,-0.079447,0.244141,-0.854492,-0.488281
0.992379,1.072016,-0.101419,-1.770020,0.244141,-1.403809
0.961617,1.064448,-0.014261,-2.258301,0.610352,-0.976562
0.974312,1.056392,0.030905,-1.403809,-2.441406,0.000000
0.997750,1.068599,-0.060648,-0.366211,-1.770020,-0.732422
0.982125,1.043696,0.002096,-0.610352,-1.770020,-0.305176
0.962350,1.043940,0.032614,0.061035,-2.624512,-1.770020
0.972603,1.065913,-0.013040,-1.770020,0.183105,-1.464844
0.995553,1.075434,-0.105814,-0.915527,-1.403809,-1.342773
0.983346,1.075434,-0.052591,-1.525879,0.122070,-1.220703
0.973092,1.040522,-0.027445,-2.075195,-0.549316,-1.342773
0.973824,1.072505,-0.039163,-0.183105,-1.770020,-2.197266
0.968453,1.065425,-0.062601,-0.061035,-1.098633,-0.671387
0.966256,1.055903,0.017477,-0.915527,-2.563477,-1.098633
0.961861,1.064448,-0.079691,-2.136230,-0.549316,-0.122070
0.973580,1.052729,-0.018656,-1.342773,-0.305176,0.976562
0.977486,1.074458,-0.049173,-0.183105,-2.685547,-1.220703
0.996285,1.047847,-0.072367,-0.854492,-0.366211,-0.305176
0.965035,1.057856,0.062155,-1.770020,-3.845215,-2.746582
0.995309,1.073725,-0.074076,-0.915527,-0.610352,-0.671387
0.978707,1.041987,0.004294,-0.732422,-0.488281,-2.319336
0.966012,1.053950,-0.028665,-0.488281,-0.976562,-0.427246
0.979928,1.067866,0.019674,-0.305176,-0.976562,0.549316
0.980172,1.054194,-0.024027,0.061035,-0.122070,-0.366211
0.989449,1.075923,-0.082132,0.610352,-1.281738,-1.831055
0.982613,1.046870,-0.038675,0.122070,-1.037598,-1.342773
0.964791,1.061763,-0.037943,-0.854492,-2.258301,-1.953125
0.956002,1.064692,0.041159,-0.610352,-1.403809,-0.122070
0.987984,1.044917,-0.093607,-0.061035,-0.427246,-0.854492
0.949654,1.046870,0.011862,-0.488281,-2.136230,-1.953125
0.969430,1.066890,-0.055521,-1.464844,-1.525879,-1.831055
0.977242,1.070307,0.060202,-2.197266,0.122070,-0.854492
0.978219,1.064936,-0.108499,-1.159668,-1.281738,-0.366211
0.982369,1.078852,-0.036966,-1.220703,-1.281738,-0.976562
0.977975,1.069331,-0.017679,-2.075195,-0.671387,0.488281
0.982125,1.063716,-0.036722,-1.403809,1.037598,-2.197266
0.980660,1.069331,-0.062357,-0.244141,0.122070,-1.037598
0.958443,1.048823,-0.004495,-0.854492,-1.037598,-1.586914
0.976021,1.049067,-0.027445,-1.037598,-1.037598,-0.915527
0.999947,1.077876,-0.000589,0.061035,-1.159668,-0.366211
0.947945,1.065913,0.063131,-0.366211,-0.427246,-1.098633
0.987740,1.063472,-0.008646,-0.305176,-0.854492,-1.098633
0.991402,1.072016,-0.052347,0.061035,-1.953125,-1.586914
0.952096,1.074214,-0.058939,-1.220703,-0.244141,-0.610352
0.990670,1.083003,0.014059,-0.915527,0.305176,-1.953125
0.971383,1.069575,-0.034525,0.610352,-2.258301,-0.061035
0.956734,1.080317,-0.068216,-1.464844,0.366211,-1.281738
0.979928,1.087397,-0.085794,0.549316,-2.746582,0.122070
0.982125,1.068110,-0.030374,-0.488281,-0.061035,-1.892090
0.983834,1.067866,-0.043802,-0.244141,-1.525879,-1.586914
0.988473,1.078608,0.021872,0.427246,-1.098633,-0.549316
0.970894,1.075190,-0.028421,-0.610352,-2.258301,-1.403809
0.975045,1.062739,-0.015482,-1.892090,-1.892090,-2.258301
0.991891,1.061519,-0.042826,-0.793457,-1.159668,0.488281
0.970162,1.072993,0.007712,-0.915527,-0.488281,-1.403809
0.990914,1.076655,0.032126,-0.366211,-2.868652,-0.976562
0.983346,1.083003,-0.033304,-1.770020,-1.159668,-1.525879
0.935494,1.066645,-0.004251,-0.305176,-0.671387,-0.488281
0.999703,1.074214,-0.063578,-1.159668,1.037598,-0.732422
0.983834,1.084468,0.000143,0.671387,-0.793457,0.305176
0.973824,1.056147,-0.051859,-0.610352,-0.488281,-0.854492
0.967476,1.061030,-0.024271,-1.281738,-2.502441,-0.732422
0.952828,1.060786,0.042135,-1.953125,-0.671387,-1.220703
0.976754,1.062495,-0.017435,0.366211,-1.342773,-1.098633
0.950387,1.059565,0.072165,-2.929688,-0.122070,-0.976562
0.976021,1.053706,0.013571,-1.342773,-0.061035,-0.793457
0.975533,1.041255,0.043844,-2.136230,1.220703,0.732422
0.978219,1.066645,0.017233,1.647949,-2.258301,-1.159668
0.980904,1.070552,-0.021097,-1.037598,-2.502441,-0.061035
0.966500,1.052241,0.099020,-2.868652,1.098633,-0.671387
0.995797,1.078852,-0.068949,-1.892090,-2.319336,0.305176
0.979195,1.032954,0.010641,-0.305176,-2.624512,-0.793457
0.968453,1.078608,-0.066507,-0.305176,-1.708984,0.183105
0.977730,1.056392,-0.084818,-0.976562,-0.976562,-0.671387
0.982125,1.079097,-0.033060,-0.427246,-1.342773,-0.427246
0.965523,1.067622,-0.031595,0.671387,-1.281738,-0.976562
0.985299,1.051753,0.083151,0.488281,-0.793457,-0.427246
0.972848,1.074458,-0.054544,-0.793457,-1.586914,-0.976562
0.972115,1.063227,-0.078226,-3.173828,0.976562,-1.647949
0.980172,1.047847,0.045309,-1.098633,-2.136230,-0.793457
0.986764,1.089350,-0.095560,0.305176,-0.244141,-3.845215
1.001656,1.062983,-0.047464,0.000000,6.286621,-5.004883
1.034371,1.059565,-0.060892,7.507324,28.991699,-4.516602
0.986764,1.072261,0.058493,7.385254,41.809082,-7.385254
0.995553,1.070796,0.022604,9.582520,50.231934,-9.765625
0.946236,1.068843,0.114401,8.239746,68.786621,-6.713867
0.907906,1.067622,0.155661,4.821777,68.664551,-5.737305
0.896676,1.069087,0.171530,0.488281,33.813477,-6.042480
0.908639,1.094722,0.128073,-2.319336,16.662598,-4.882812
0.936715,1.069087,0.225973,2.563477,41.320801,0.488281
0.966988,1.094722,0.225485,12.878418,87.768555,-6.347656
0.924996,1.094722,0.251120,25.085449,182.739258,-4.394531
0.852242,1.124507,0.390280,9.582520,204.895020,0.427246
0.774117,1.124263,0.467428,15.197754,238.586426,2.624512
0.632760,1.135737,0.616354,10.742188,243.408203,-2.136230
0.507271,1.136714,0.771872,15.075684,273.010254,-3.906250
0.313424,1.100337,0.851462,3.540039,251.098633,-3.601074
0.173775,1.125727,0.951559,-0.244141,214.050293,-11.291504
0.067086,1.145991,0.975485,2.868652,148.498535,-6.652832
0.024850,1.145747,0.937643,-4.394531,124.328613,-14.587402
-0.017631,1.150874,0.950827,-4.943848,122.497559,-18.615723
-0.101859,1.141352,1.018698,-9.216309,117.431641,-30.822754
-0.191947,1.130122,1.026510,-9.399414,72.326660,-27.770996
-0.285697,1.144038,1.042868,-14.892578,25.878906,-15.930176
-0.265922,1.133296,1.033346,-2.136230,30.822754,-8.239746
-0.275443,1.140376,1.078512,-6.652832,-23.071289,0.122070
-0.265922,1.136225,0.997458,5.554199,11.596680,-0.549316
-0.238822,1.137202,0.956930,13.854980,12.390137,-2.868652
-0.258598,1.112544,0.955710,4.699707,-13.793945,1.037598
-0.251518,1.084224,0.883688,6.652832,4.333496,-4.150391
-0.252250,1.114497,0.978903,-2.746582,-27.343750,2.319336
-0.273734,1.137934,0.980368,-28.381348,-85.144043,27.099609
-0.121391,1.129390,1.121969,-31.738281,-132.446289,44.677734
-0.057914,1.143306,1.092184,-19.531250,-145.141602,41.748047
0.132760,1.075190,1.126364,-6.347656,-155.700684,33.142090
0.110055,1.089350,1.025778,19.714355,-118.652344,30.395508
0.202096,1.067866,1.008688,10.314941,-138.610840,21.667480
0.290475,1.066401,0.887350,-22.705078,-257.141113,43.762207
0.530953,0.977534,0.844626,-49.377441,-401.733398,47.668457
0.634713,0.969722,0.510153,-51.391602,-393.859863,32.775879
0.795357,0.916255,0.314352,-67.321777,-384.155273,13.732910
0.897408,0.907222,0.161520,-74.951172,-403.198242,10.925293
0.812447,0.959956,-0.058939,-60.791016,-389.648438,7.934570
0.818062,0.917231,-0.406839,-43.273926,-369.384766,19.958496
0.619332,0.969477,-0.518900,-32.836914,-469.482422,22.155762
0.453316,0.943843,-0.806742,21.484375,-280.700684,43.701172
0.423531,0.773188,-0.919046,47.790527,-237.854004,64.086914
0.319283,0.738520,-1.063333,51.452637,-155.761719,36.254883
0.255074,0.711421,-1.057474,22.216797,-114.562988,16.967773
0.168404,0.741450,-1.082132,4.394531,-50.354004,-9.399414
0.144478,0.757563,-1.039408,6.652832,-10.009766,2.258301
0.153268,0.771968,-1.005960,0.000000,3.295898,0.915527
0.142037,0.747310,-0.876566,-2.990723,-12.329102,5.187988
0.131295,0.739497,-0.899515,6.347656,25.085449,-6.225586
0.182076,0.731440,-0.975687,10.681152,19.714355,-0.183105
0.156930,0.727778,-0.961038,3.845215,4.638672,-1.220703
0.184029,0.730220,-0.909525,12.084961,31.555176,-12.451172
0.206002,0.675044,-0.985208,-2.929688,15.197754,-6.713867
0.226754,0.715815,-0.915384,-0.488281,19.653320,-9.216309
0.180123,0.770747,-0.932230,-3.906250,2.014160,-3.356934
0.198922,0.744380,-0.911966,2.624512,15.075684,-5.249023
0.210641,0.728022,-0.924417,-9.460449,-23.254395,1.647949
0.203072,0.734370,-1.019632,9.704590,62.561035,-16.784668
0.368355,0.684077,-1.041117,-11.108398,57.800293,-31.005859
0.283394,0.753413,-0.990824,55.053711,331.054688,-60.058594
0.560250,0.705073,-0.849954,-64.636230,-3.112793,-25.756836
0.548043,0.772700,-0.808206,18.432617,251.403809,-55.786133
0.694283,0.777095,-0.679300,-18.493652,127.990723,-49.987793
0.701363,0.854243,-0.563333,1.647949,187.072754,-51.086426
0.777047,0.864009,-0.486185,20.202637,219.116211,-44.799805
0.822945,0.887935,-0.358744,8.239746,187.072754,-54.809570
0.873726,0.927974,-0.279154,18.127441,229.125977,-39.916992
0.897164,0.963862,-0.101175,5.187988,234.191895,-39.611816
0.872750,0.988276,0.047018,13.732910,223.083496,-17.883301
0.894967,0.973384,0.141012,9.643555,260.131836,-21.179199
0.792428,1.010981,0.425680,21.301270,306.091309,-12.695312
0.764107,0.977046,0.530172,24.963379,332.641602,-25.390625
0.556832,1.051997,0.712057,19.653320,359.985352,-32.897949
0.359811,1.057612,0.790915,23.681641,370.666504,-37.536621
0.099557,1.083491,1.017477,13.183594,315.551758,-45.349121
-0.083793,1.109858,0.973776,28.015137,296.020508,-50.231934
-0.223686,1.133052,1.064352,-7.629395,130.554199,-39.916992
-0.273979,1.151118,1.017721,18.859863,112.426758,-29.235840
-0.293266,1.158931,1.052878,14.892578,46.569824,-28.137207
-0.330619,1.152583,1.026999,19.470215,35.888672,-17.028809
-0.351371,1.178706,0.984518,5.310059,-4.943848,-11.413574
-0.322807,1.160395,0.952047,-2.075195,-9.826660,2.258301
-0.288627,1.147944,0.908102,1.098633,-5.126953,2.807617
-0.288871,1.127192,0.937155,-1.892090,-4.211426,1.525879
-0.314262,1.172602,0.937399,-4.089355,-13.854980,1.770020
-0.309867,1.137690,0.929098,0.244141,0.671387,1.098633
-0.304252,1.160151,0.918844,-5.004883,-13.244629,6.164551
-0.275932,1.147700,0.959616,-6.225586,-32.653809,8.361816
-0.307670,1.178950,0.961569,-24.475098,-76.660156,23.864746
-0.146781,1.096431,1.060202,-35.278320,-133.056641,36.804199
-0.149223,1.124018,1.080465,-2.868652,-119.506836,30.822754
-0.013969,1.094233,0.937155,-27.709961,-196.228027,32.897949
0.117135,1.083491,0.928854,-37.048340,-223.815918,43.945312
0.285836,0.993159,0.965719,-28.808594,-253.601074,45.288086
0.455514,0.969477,0.806540,-67.443848,-391.296387,61.462402
0.658394,0.915278,0.648092,-63.842773,-395.080566,28.076172
0.790475,0.874263,0.495749,-69.824219,-477.661133,33.142090
0.820260,0.848872,0.159323,-55.480957,-491.821289,18.188477
0.828805,0.851802,-0.220560,-63.354492,-474.365234,35.034180
0.731881,0.822017,-0.498148,-51.879883,-378.417969,-0.366211
0.533394,0.894282,-0.674662,-35.156250,-315.673828,9.033203
0.467477,0.842768,-0.849466,3.173828,-184.631348,24.536133
0.461129,0.821040,-0.852884,12.573242,-173.828125,43.212891
0.331246,0.774897,-0.964945,22.033691,-194.396973,51.635742
0.216744,0.753901,-0.925638,55.175781,-89.843750,37.719727
0.205758,0.666987,-0.978617,59.387207,-94.970703,39.550781
0.101998,0.687739,-0.956156,18.371582,31.860352,-21.057129
0.234566,0.632563,-1.030863,-1.831055,-44.616699,9.338379
0.135934,0.660151,-0.868265,-11.840820,29.113770,-11.291504
0.274361,0.657222,-0.910990,-0.061035,7.934570,-1.342773
0.142525,0.676753,-0.913919,-7.507324,20.019531,-9.582520
0.272652,0.665278,-0.893656,4.089355,55.114746,-20.263672
0.253853,0.680659,-0.985453,5.737305,126.037598,-30.273438
0.455514,0.651118,-0.912943,-5.920410,110.046387,-39.855957
0.379830,0.693354,-0.894632,31.494141,283.020020,-58.044434
0.672310,0.664302,-0.754496,-43.579102,54.382324,-34.240723
0.682809,0.723628,-0.710062,12.817383,233.642578,-57.861328
0.761666,0.769282,-0.614359,7.019043,253.723145,-54.077148
0.799752,0.808101,-0.400980,14.709473,261.047363,-49.377441
0.850533,0.843013,-0.237650,26.062012,303.833008,-49.133301
0.846871,0.896479,-0.047708,28.442383,293.090820,-52.856445
0.847115,0.893550,0.139303,18.554688,257.019043,-38.391113
0.822945,0.919673,0.295553,28.442383,307.556152,-22.583008
0.746285,0.957759,0.428122,30.700684,350.097656,-29.724121
0.522896,0.994624,0.657370,10.009766,369.079590,-20.812988
0.396676,0.961421,0.803610,16.174316,387.939453,-30.029297
0.092721,1.030024,0.990622,9.765625,354.553223,-43.640137
-0.076957,1.009272,1.110251,9.521484,240.966797,-45.410156
-0.154350,1.035396,1.108053,3.173828,123.596191,-44.372559
-0.188529,1.026606,0.992575,14.831543,111.450195,-44.555664
-0.216850,1.045894,1.010641,0.244141,59.143066,-47.241211
-0.292289,1.051509,1.020407,-5.126953,33.569336,-50.842285
-0.329398,1.039302,1.071188,-5.065918,6.103516,-30.883789
-0.321586,1.012202,1.033102,13.854980,33.813477,-6.774902
-0.361381,1.050288,0.977438,-6.469727,-7.568359,-4.821777
-0.348197,1.009028,0.958395,-9.033203,-24.475098,16.906738
-0.372123,1.037593,1.078268,-62.683105,-157.043457,59.814453
-0.089652,0.928462,1.107321,-32.775879,-193.908691,56.274414
0.019723,0.945063,1.111715,-14.953613,-237.060547,41.687012
0.303170,0.870601,1.077536,-19.226074,-423.095703,23.071289
0.448678,0.921382,0.860251,-10.681152,-416.259766,-9.704590
0.608101,0.945796,0.665671,-4.028320,-325.683594,-13.305664
0.716012,0.916255,0.485251,-29.907227,-392.578125,-6.408691
0.849801,0.913569,0.200827,-29.785156,-367.187500,-13.122559
0.872506,0.939936,0.027731,-39.428711,-382.141113,-12.023926
0.765572,0.983393,-0.177347,-21.057129,-373.901367,-8.361816
0.705758,0.942134,-0.348734,-39.001465,-440.917969,-5.615234
0.455758,1.018062,-0.655374,-14.099121,-421.264648,-1.159668
0.409127,0.943354,-0.864115,-7.324219,-262.329102,10.803223
0.310494,0.876460,-0.864603,40.161133,-178.344727,24.414062
0.322945,0.858638,-1.097513,22.033691,-98.815918,3.417969
0.225533,0.892085,-0.960794,24.169922,-66.345215,5.920410
0.171822,0.891108,-1.046244,19.714355,-39.367676,-0.549316
0.177437,0.834468,-0.997415,27.832031,-31.311035,11.657715
0.129586,0.833979,-1.073831,12.878418,0.915527,-5.004883
0.175728,0.810542,-1.025003,11.535645,-5.493164,1.647949
0.154000,0.818354,-0.945169,-0.427246,-12.023926,0.244141
0.182320,0.858882,-0.941019,11.779785,46.020508,-8.178711
0.160836,0.777827,-0.915384,26.000977,146.118164,-14.343262
0.413521,0.688960,-1.004007,60.241699,341.857910,-28.503418
0.641060,0.670893,-0.829203,9.887695,260.803223,-22.277832
0.747750,0.723628,-0.559183,5.126953,259.216309,-39.916992
0.836617,0.749507,-0.516947,26.916504,295.043945,-51.574707
0.899361,0.806636,-0.285746,13.427734,242.248535,-47.912598
0.913277,0.832515,-0.123392,29.785156,260.070801,-63.415527
0.876900,0.864009,0.004782,24.108887,272.277832,-52.856445
0.852975,0.926509,0.156637,29.907227,311.218262,-54.138184
0.739937,0.953852,0.373190,38.146973,344.848633,-37.292480
0.687203,0.967768,0.548727,43.457031,361.450195,-31.433105
0.365426,1.030757,0.844137,34.912109,331.970215,-31.372070
0.162789,1.054683,0.943014,9.765625,286.743164,-47.790527
-0.016898,1.093013,1.039938,6.347656,236.511230,-48.706055
-0.110893,1.109126,1.064840,-0.366211,137.084961,-36.621094
-0.168266,1.083247,1.056296,11.474609,125.122070,-33.630371
-0.213432,1.100581,1.042379,5.493164,74.829102,-37.902832
-0.250541,1.130610,1.035788,11.230469,46.081543,-24.597168
-0.283500,1.098872,1.016012,4.211426,7.629395,-18.859863
-0.275932,1.133540,1.002829,-0.061035,-2.197266,-1.586914
-0.252250,1.108882,0.981344,0.671387,-1.770020,-1.098633
-0.246635,1.108882,0.952780,4.272461,3.540039,-0.671387
-0.316215,1.115962,0.975973,-8.178711,-25.085449,8.789062
-0.191947,1.083247,1.100241,-28.442383,-106.384277,22.399902
-0.289115,1.134761,1.070944,-12.329102,-92.651367,34.973145
0.021676,0.998774,1.163229,-57.312012,-267.578125,50.109863
0.048043,1.061274,1.066061,27.648926,-124.389648,34.973145
0.232125,1.013179,0.947653,-23.559570,-231.933594,53.466797
0.359078,1.001216,0.919333,-15.869141,-263.854980,35.888672
0.499947,0.971431,0.736471,-32.531738,-318.054199,31.860352
0.678902,0.948970,0.701315,-36.804199,-356.750488,18.676758
0.795113,0.894038,0.404684,-36.376953,-340.820312,12.084961
0.902291,0.909907,0.291891,-57.861328,-358.093262,-1.770020
0.909615,0.894526,-0.018900,-61.462402,-437.927246,4.211426
0.768502,0.945796,-0.237650,-74.890137,-514.770508,-9.643555
0.558785,0.978267,-0.522318,-46.203613,-576.416016,-3.723145
0.346383,0.984126,-0.750345,18.310547,-290.710449,28.991699
0.327096,0.823970,-0.827249,71.838379,-225.585938,21.606445
0.238473,0.773188,-0.863626,89.904785,-111.511230,6.713867
0.153023,0.715571,-1.040872,86.975098,-93.505859,11.413574
0.077828,0.659175,-1.028665,37.048340,-43.823242,6.042480
0.126168,0.648677,-1.050638,31.433105,-13.000488,-3.601074
0.038277,0.615718,-1.026468,0.610352,-30.334473,8.544922
0.089791,0.616206,-1.046488,7.873535,8.544922,6.591797
0.108834,0.646479,-0.968851,-11.047363,30.700684,-6.225586
0.113717,0.681880,-0.975931,1.281738,56.823730,-8.911133
0.254098,0.626704,-1.052347,-25.207520,58.654785,-18.859863
0.234078,0.663569,-0.940287,52.001953,400.024414,-75.378418
0.483590,0.621577,-0.928812,-33.874512,224.609375,-43.518066
0.654732,0.675532,-0.555521,9.521484,340.209961,-47.485352
0.799508,0.725093,-0.426371,17.822266,331.298828,-62.683105
0.856637,0.790278,-0.254740,30.090332,311.767578,-78.125000
0.888619,0.819087,-0.181253,5.920410,205.993652,-81.115723
0.865426,0.896479,-0.024027,18.859863,280.944824,-69.824219
0.912545,0.899653,0.181296,23.498535,288.452148,-70.861816
0.754830,0.994624,0.361471,57.434082,375.061035,-102.172852
0.704293,1.045405,0.468161,49.682617,372.558594,-90.087891
0.367867,1.130610,0.675436,4.821777,395.019531,-91.064453
0.161324,1.153559,0.876608,-2.380371,332.275391,-82.397461
-0.032768,1.121821,0.913229,-21.911621,257.507324,-60.363770
-0.076957,1.093745,1.076315,-46.081543,91.796875,-52.917480
-0.180473,1.135493,0.974508,-11.047363,136.413574,-59.509277
-0.189750,1.096431,1.044333,-35.339355,44.494629,-48.217773
-0.249564,1.084224,1.103903,-19.775391,51.696777,-32.348633
-0.250541,1.102778,1.142965,-17.028809,-1.770020,-7.690430
-0.169731,1.077143,1.121969,6.103516,6.042480,-2.624512
-0.162406,1.095210,1.016012,6.530762,-16.723633,3.662109
-0.206840,1.065913,0.995993,13.244629,14.770508,-5.676270
-0.250297,1.070063,1.055075,0.366211,-24.414062,4.882812
-0.185600,1.060542,1.095846,-10.620117,-84.899902,21.850586
-0.233207,1.096919,1.143210,-12.695312,-181.945801,55.725098
0.062691,1.010249,1.063864,-55.847168,-318.725586,78.979492
0.276559,0.962642,1.077780,-9.643555,-268.432617,49.987793
0.457223,0.971919,0.876120,7.568359,-270.202637,29.113770
0.575875,0.955317,0.665671,-5.432129,-275.756836,25.024414
0.637887,0.976802,0.614157,-24.414062,-287.414551,17.883301
0.761666,0.913081,0.440085,-35.339355,-343.444824,27.893066
0.783150,0.906001,0.301901,-37.170410,-340.393066,15.014648
0.885689,0.860591,-0.013285,-62.194824,-468.017578,15.014648
0.755807,0.915522,-0.219828,-40.039062,-357.482910,-8.789062
0.811959,0.910395,-0.534281,-35.705566,-349.731445,1.892090
0.611764,0.947993,-0.680521,-36.132812,-310.729980,9.094238
0.527535,0.918940,-0.804300,8.300781,-139.709473,2.197266
0.517037,0.882319,-0.877298,-24.963379,-213.439941,16.357422
0.379830,0.901118,-0.925150,2.136230,-136.596680,4.882812
0.320748,0.913081,-1.003763,-3.784180,-138.183594,16.784668
0.178170,0.993159,-0.919779,18.188477,-43.762207,0.549316
0.252877,0.903560,-0.944193,39.550781,-44.921875,13.183594
0.143990,0.855220,-1.012552,5.004883,-25.024414,2.136230
0.230416,0.845942,-0.970804,22.644043,18.676758,-2.868652
0.278512,0.826899,-1.020609,-13.183594,-28.930664,5.859375
0.156441,0.879878,-0.907572,4.516602,37.658691,-6.896973
0.273873,0.911616,-0.990091,5.187988,98.388672,-23.925781
0.300973,0.823726,-1.014017,19.775391,201.171875,4.028320
0.584176,0.778071,-0.914408,-22.277832,87.585449,-25.512695
0.551217,0.823970,-0.852396,58.776855,375.488281,-21.850586
0.800728,0.832515,-0.705179,17.822266,274.169922,-35.034180
0.801217,0.894038,-0.474710,60.180664,447.509766,-35.095215
0.939889,0.858638,-0.172953,46.997070,383.056641,-47.912598
0.862252,0.928706,0.107321,18.859863,277.343750,-49.255371
0.872262,0.932368,0.306784,24.414062,251.159668,-28.259277
0.796578,0.963130,0.433249,40.527344,312.683105,-25.512695
0.692574,0.978999,0.546286,44.250488,367.614746,-35.034180
0.470406,1.036128,0.747702,27.648926,386.108398,-34.423828
0.261422,1.040522,0.938131,17.944336,338.378906,-45.288086
0.100777,1.060542,1.025534,3.906250,247.558594,-48.034668
-0.050102,1.081294,1.097067,13.671875,181.762695,-41.198730
-0.109428,1.101802,1.055319,11.718750,97.473145,-37.109375
-0.093070,1.121089,1.068747,11.352539,66.345215,-30.334473
-0.203910,1.121577,1.002585,18.005371,56.518555,-26.733398
-0.207084,1.131587,1.033346,15.625000,32.104492,-21.240234
-0.254203,1.149409,0.962546,11.596680,10.253906,-14.587402
-0.259086,1.150630,0.941549,4.455566,0.122070,-4.943848
-0.249076,1.148677,0.935690,3.601074,-9.155273,3.662109
-0.242484,1.156245,0.969381,-15.747070,-28.442383,11.535645
-0.221977,1.156489,0.946676,11.718750,25.573730,1.953125
-0.264701,1.158686,1.007467,-24.108887,-66.101074,19.409180
-0.202201,1.132807,1.038962,-21.545410,-109.741211,25.268555
-0.059379,1.107417,1.034323,-77.758789,-265.563965,91.491699
0.170113,1.021235,1.040915,-56.213379,-287.170410,66.711426
0.355660,0.968501,0.879294,-53.771973,-326.599121,75.622559
0.619820,0.874018,0.825583,-100.280762,-487.304688,49.255371
0.790963,0.784175,0.527975,-82.763672,-540.527344,10.742188
0.876412,0.788325,0.183249,-105.346680,-659.423828,-8.728027
0.766793,0.859858,-0.187357,-82.031250,-567.687988,-29.052734
0.560006,0.912593,-0.625589,-26.672363,-400.390625,-14.831543
0.473092,0.893550,-0.808695,-23.681641,-224.304199,-2.685547
0.447213,0.853511,-0.980081,-9.643555,-144.470215,0.793457
0.465768,0.834712,-0.973734,-43.640137,-192.565918,2.197266
0.280221,0.947261,-0.928568,-15.625000,-79.345703,-7.812500
0.238961,0.970210,-1.011820,-3.234863,-50.720215,-6.469727
0.233834,0.945308,-0.907816,-4.821777,-57.922363,7.629395
0.193307,0.931147,-0.925638,22.949219,26.550293,10.375977
0.280953,0.876460,-0.934671,13.427734,39.489746,4.394531
0.353951,0.881099,-0.935160,13.977051,47.546387,-0.305176
0.324654,0.876948,-0.927347,77.575684,333.557129,1.281738
0.637643,0.761470,-0.865824,30.151367,267.822266,1.708984
0.734810,0.776118,-0.585794,42.724609,317.687988,-6.896973
0.881051,0.758784,-0.411722,39.855957,283.325195,-14.282227
0.929391,0.747310,-0.240579,35.888672,246.643066,-27.160645
0.917428,0.800044,-0.101175,17.333984,229.431152,-16.418457
0.939400,0.812251,0.070456,30.700684,275.695801,-28.625488
0.880562,0.837642,0.219626,34.179688,281.250000,-30.944824
0.799996,0.897944,0.391501,41.931152,345.031738,-25.817871
0.631051,0.879634,0.620993,38.085938,341.003418,-20.202637
0.448922,0.901362,0.800680,18.249512,331.787109,7.751465
0.376656,0.903560,0.922262,32.775879,330.627441,-15.563965
0.158639,0.937007,1.047262,29.418945,267.395020,-33.996582
-0.033500,0.980952,1.093405,21.545410,149.353027,-33.569336
-0.071342,1.006343,1.027487,26.123047,132.019043,-34.973145
-0.151420,1.059077,1.044088,30.517578,101.745605,-24.536133
-0.143852,1.059810,1.029684,14.831543,25.390625,-19.714355
-0.195365,1.087886,1.035055,22.827148,32.836914,-15.930176
-0.183158,1.070552,0.979879,10.192871,-16.662598,-4.333496
-0.213188,1.084468,1.024313,0.854492,-18.310547,0.122070
-0.246147,1.109370,1.043844,-14.953613,-98.754883,28.564453
-0.138481,1.073970,1.025778,-40.283203,-199.157715,56.396484
0.085152,0.994136,1.115133,-56.884766,-255.126953,80.322266
0.288766,0.955806,0.996237,-24.475098,-257.690430,55.603027
0.420602,0.930659,0.813620,-23.681641,-250.061035,34.423828
0.560738,0.915767,0.791647,-50.537109,-303.161621,28.198242
0.688668,0.830806,0.608786,-50.476074,-333.557129,5.676270
0.789986,0.852046,0.417624,-59.692383,-349.609375,9.338379
0.856393,0.810298,0.208151,-60.180664,-389.343262,4.028320
0.798531,0.846431,-0.026712,-64.147949,-389.160156,16.235352
0.790475,0.817622,-0.320902,-74.584961,-420.166016,-16.845703
0.674019,0.879634,-0.559671,-68.664551,-431.945801,-13.488770
0.539986,0.886714,-0.721048,-26.000977,-249.938965,-1.281738
0.434762,0.890620,-0.856790,11.413574,-169.494629,7.507324
0.394234,0.866450,-0.906595,46.569824,-101.623535,4.272461
0.304635,0.811763,-1.007425,29.418945,-102.600098,20.568848
0.274117,0.764155,-0.968851,19.348145,-90.576172,28.625488
0.312691,0.760005,-1.021585,4.150391,-64.758301,22.521973
0.185494,0.807368,-0.937113,23.071289,30.700684,-0.366211
0.280709,0.694087,-0.981546,5.065918,39.550781,-4.211426
0.288521,0.744380,-0.865824,34.973145,200.622559,-23.864746
0.498238,0.678950,-0.901468,60.363770,318.847656,-24.841309
0.672066,0.674556,-0.693216,18.798828,246.765137,-27.465820
0.763375,0.700190,-0.541849,11.108398,209.472656,-30.517578
0.796822,0.730952,-0.377787,12.390137,229.187012,-26.306152
0.883736,0.715327,-0.294779,12.695312,199.523926,-26.733398
0.891305,0.775142,-0.173197,6.713867,197.021484,-21.484375
0.924264,0.744136,-0.037699,21.972656,224.792480,-21.972656
0.892281,0.785640,0.145407,28.503418,242.126465,-24.719238
0.845162,0.790522,0.289206,36.560059,263.305664,-30.395508
0.785348,0.843013,0.424215,56.884766,319.091797,-22.155762
0.657906,0.890620,0.575583,54.870605,362.304688,-29.907227
0.465279,0.916255,0.757712,53.955078,386.413574,-28.991699
0.222848,0.943843,0.931296,55.236816,388.732910,-47.912598
0.022164,0.991450,1.030661,30.578613,249.755859,-62.744141
-0.161430,1.044185,1.086081,10.314941,117.919922,-46.569824
-0.134330,1.054194,1.074850,7.263184,64.270020,-33.081055
-0.193900,1.081294,1.088766,4.211426,28.930664,-18.310547
-0.179252,1.097407,1.077292,7.324219,14.038086,-8.544922
-0.202689,1.068843,1.067282,4.699707,-3.967285,-0.915527
-0.160697,1.062983,1.070456,-3.051758,-43.457031,5.371094
-0.188285,1.081294,1.105856,-16.418457,-138.916016,25.146484
0.027047,0.994380,1.100729,-61.950684,-257.324219,68.603516
0.204049,0.964351,0.985006,-51.025391,-252.258301,66.284180
0.416451,0.882075,0.965719,-32.531738,-265.563965,39.733887
0.463082,0.870845,0.862692,-25.207520,-264.404297,31.433105
0.675240,0.835444,0.732321,-45.166016,-367.431641,15.197754
0.737984,0.822017,0.426901,-48.889160,-408.386230,11.230469
0.808053,0.805659,0.207419,-78.002930,-429.199219,-5.310059
0.791207,0.783198,-0.067484,-58.532715,-412.963867,-9.887695
0.707223,0.863765,-0.418558,-142.028809,-624.572754,6.958008
0.559273,0.892817,-0.643167,-99.487305,-482.238770,-4.760742
0.405953,0.886470,-0.835062,-1.831055,-148.681641,17.822266
0.386666,0.890376,-0.870951,3.112793,-176.757812,26.367188
0.332467,0.844722,-1.014749,18.493652,-68.298340,22.766113
0.254586,0.819087,-1.011087,35.156250,-89.660645,30.395508
0.193062,0.840083,-1.016703,26.306152,-49.926758,11.657715
0.153756,0.801997,-0.955179,46.264648,-49.072266,30.212402
0.138863,0.791011,-1.073587,6.408691,7.568359,0.000000
0.224557,0.724360,-1.034281,13.732910,7.812500,5.371094
0.164742,0.777095,-0.898294,3.112793,60.363770,-5.737305
0.320016,0.698481,-0.913675,31.494141,182.312012,-27.099609
0.464059,0.655024,-0.926126,72.753906,369.506836,-35.583496
0.716744,0.610102,-0.695169,34.851074,349.609375,-51.513672
0.810006,0.669429,-0.444681,82.519531,400.146484,-52.978516
0.872750,0.723140,-0.212015,60.729980,363.525391,-63.842773
0.875191,0.759761,-0.038431,77.331543,361.816406,-67.199707
0.803658,0.807368,0.240622,62.988281,387.207031,-56.335449
0.693551,0.871089,0.501364,73.974609,407.043457,-43.884277
0.540719,0.916011,0.732321,63.354492,365.051270,-40.588379
0.410348,0.946528,0.893942,49.438477,297.790527,-50.842285
0.239937,1.025142,0.981100,50.598145,244.689941,-58.288574
0.113473,1.066157,1.014547,36.804199,171.936035,-61.523438
0.022652,1.110835,0.991842,25.695801,105.651855,-50.659180
-0.034477,1.153315,0.996969,47.363281,138.000488,-57.922363
-0.117729,1.152583,1.070456,29.357910,82.763672,-59.143066
-0.206352,1.198481,0.996969,18.249512,55.175781,-34.912109
-0.260795,1.201899,1.000387,18.310547,48.095703,-27.282715
-0.276420,1.216304,0.992575,-3.723145,6.042480,-8.300781
-0.301078,1.236079,1.059225,-33.081055,-86.914062,28.686523
-0.158988,1.180659,1.069967,-10.009766,-135.009766,36.193848
-0.091361,1.190181,1.054831,-79.650879,-249.511719,120.727539
0.279732,1.048579,1.203512,-9.216309,-318.969727,41.259766
0.254830,1.094722,0.803854,-19.226074,-296.264648,80.749512
0.683297,0.946040,0.901510,-83.862305,-485.656738,63.537598
0.699166,0.935054,0.445700,-47.363281,-436.706543,53.894043
0.907906,0.844722,0.256247,-53.100586,-397.094727,36.193848
0.843941,0.851802,-0.063578,-59.204102,-414.367676,22.155762
0.801705,0.873042,-0.273294,-54.016113,-343.627930,13.122559
0.692086,0.879145,-0.506937,-49.499512,-333.435059,7.446289
0.590035,0.907222,-0.630716,-67.626953,-335.876465,14.831543
0.507516,0.893794,-0.806253,-34.790039,-241.210938,13.244629
0.442818,0.891108,-0.894632,-29.541016,-249.328613,25.695801
0.255318,0.915278,-0.947367,20.324707,-58.105469,17.150879
0.275826,0.882075,-1.026224,22.766113,-80.993652,29.846191
0.226998,0.882563,-0.967386,7.141113,-36.499023,12.329102
0.166939,0.900142,-0.961527,13.488770,7.263184,8.361816
0.230904,0.890376,-0.989115,24.780273,93.322754,-11.108398
0.354195,0.796870,-0.966898,6.164551,62.255859,13.610840
0.407418,0.781245,-0.856546,53.344727,286.437988,-15.991211
0.609566,0.713130,-0.780374,57.250977,334.350586,1.403809
0.777047,0.698481,-0.587259,2.929688,221.008301,-16.723633
0.849801,0.723140,-0.443704,39.794922,288.818359,-25.024414
0.931100,0.744624,-0.233499,34.667969,294.433594,-22.277832
0.967721,0.781977,-0.045999,45.593262,281.250000,-43.090820
0.917672,0.791499,0.107321,55.847168,301.513672,-57.312012
0.870309,0.855464,0.293844,50.537109,297.607422,-44.128418
0.769967,0.923823,0.454245,49.621582,297.668457,-48.889160
0.669625,0.951411,0.603903,53.039551,313.232422,-38.757324
0.492867,1.005366,0.704245,49.804688,349.670410,-45.837402
0.306344,1.024409,0.866110,39.611816,337.707520,-58.227539
0.074898,1.069819,0.914694,42.419434,355.834961,-73.181152
-0.184135,1.115962,1.026266,9.338379,209.777832,-77.514648
-0.302299,1.119380,1.038962,-0.122070,147.888184,-59.753418
-0.355766,1.124018,1.117331,6.042480,56.884766,-40.405273
-0.309379,1.129878,1.010153,10.742188,9.399414,-26.306152
-0.351615,1.157710,0.929831,12.390137,5.065918,-9.887695
-0.280570,1.138423,0.935934,-5.615234,-7.568359,-1.586914
-0.307670,1.152095,0.989645,-7.690430,-9.887695,-2.807617
-0.208549,1.096431,1.023092,-10.803223,-30.090332,5.187988
-0.260795,1.147944,0.991354,4.882812,6.835938,3.540039
-0.382133,1.154536,1.069723,-27.587891,-92.712402,27.404785
-0.237113,1.145503,1.041403,19.714355,-34.667969,13.488770
-0.343559,1.201411,1.087057,-48.400879,-260.986328,86.364746
0.023629,1.011958,1.056540,-57.861328,-396.728516,106.140137
0.319771,0.985347,0.885397,-47.851562,-450.683594,87.158203
0.575875,0.906001,0.632223,-30.334473,-388.977051,51.208496
0.723824,0.865229,0.499411,-50.476074,-339.721680,39.306641
0.726510,0.854731,0.306540,-29.968262,-271.423340,33.630371
0.860543,0.772456,0.132956,-39.611816,-230.590820,23.132324
0.944039,0.757319,0.082907,-51.330566,-287.536621,15.014648
0.878121,0.797847,-0.121439,-41.076660,-245.544434,9.643555
0.849557,0.800776,-0.297220,-32.653809,-206.054688,5.187988
0.753121,0.826167,-0.458841,-4.638672,-84.167480,9.826660
0.862496,0.771968,-0.450052,-52.307129,-280.334473,-0.671387
0.612008,0.852290,-0.602884,2.624512,-116.455078,16.723633
0.656685,0.817134,-0.670755,-39.367676,-268.554688,19.836426
0.486764,0.792231,-0.753031,12.023926,-128.662109,21.789551
0.474312,0.717280,-0.873148,-15.869141,-220.397949,31.066895
0.377877,0.748530,-0.788187,38.146973,-165.832520,23.071289
0.275826,0.721186,-0.933206,34.667969,-114.379883,36.193848
0.185250,0.724849,-0.984720,54.992676,15.808105,-5.126953
0.140328,0.700435,-1.019632,4.821777,-10.314941,8.422852
0.251900,0.635981,-0.954447,9.338379,18.615723,-2.380371
0.187203,0.693354,-0.918558,2.441406,31.494141,-4.821777
0.286568,0.654536,-0.936136,-14.587402,6.896973,-2.075195
0.229195,0.699214,-0.918558,-4.882812,78.491211,-5.371094
0.394723,0.656245,-0.871683,-22.460938,33.081055,-15.441895
0.335641,0.703608,-0.881693,-17.272949,26.916504,-10.498047
0.374947,0.739741,-0.864603,5.554199,142.639160,-42.175293
0.418160,0.712642,-0.901468,0.366211,178.222656,-29.174805
0.605660,0.719233,-0.770609,-37.048340,41.320801,-31.738281
0.582467,0.796138,-0.722513,18.249512,205.993652,-26.794434
0.693062,0.744624,-0.635599,10.620117,185.485840,-29.052734
0.742623,0.806880,-0.498148,27.038574,254.394531,-25.390625
0.867379,0.759517,-0.345560,23.498535,211.486816,-15.747070
0.894234,0.803462,-0.230326,31.433105,215.759277,-31.005859
0.851510,0.817622,-0.062357,30.944824,211.975098,-23.376465
0.949410,0.812251,0.067526,-9.521484,73.730469,-13.671875
0.944039,0.827632,0.103659,9.338379,87.707520,-11.962891
0.967232,0.854976,0.150778,10.681152,83.129883,2.075195
1.002633,0.814448,0.205710,-20.751953,-45.104980,-16.540527
0.927193,0.880366,0.143454,-0.488281,-15.014648,-14.282227
0.987008,0.816645,0.079489,2.014160,-4.333496,-10.498047
0.924752,0.881587,0.085837,1.220703,-15.563965,-15.625000
0.974068,0.840815,0.057516,3.540039,-3.906250,-4.638672
0.952828,0.860347,0.091208,-5.615234,-3.845215,-6.652832
0.984566,0.847651,0.079977,-0.610352,-0.122070,-6.103516
0.960152,0.875972,0.104880,-4.943848,-8.178711,-6.896973
0.972115,0.885249,0.088034,-4.760742,2.075195,-7.019043
0.938668,0.902827,0.096335,-1.647949,-4.699707,-6.469727
0.975289,0.885249,0.093893,-7.568359,-11.840820,-8.911133
0.956978,0.916499,0.113669,-3.784180,-2.136230,-7.934570
0.981148,0.901362,0.063620,-5.065918,-4.455566,-7.141113
0.967721,0.898921,0.083151,0.671387,-2.136230,-3.540039
0.983346,0.932124,0.044333,-1.770020,-4.150391,-2.990723
0.944283,0.895503,0.056296,-1.037598,-3.234863,-1.953125
0.971627,0.891841,0.107077,-2.746582,-2.197266,-4.516602
0.958932,0.905513,0.087546,-2.380371,-0.793457,-0.915527
0.986519,0.893061,0.077047,-1.586914,0.122070,-1.831055
0.945504,0.912593,0.064596,-0.671387,-2.136230,-3.540039
0.979195,0.904292,0.087301,-0.976562,0.366211,-0.061035
0.955514,0.903804,0.093649,-1.098633,-1.281738,-1.586914
0.974801,0.905757,0.079977,-1.464844,-0.488281,-1.037598
0.961373,0.915767,0.069967,0.671387,-0.915527,-0.732422
0.976266,0.914790,0.088522,-1.831055,-1.647949,-0.122070
0.975533,0.881587,0.107321,-0.427246,0.915527,-0.366211
0.966012,0.918696,0.074850,1.708984,0.305176,-1.464844
0.985787,0.911860,0.055319,0.061035,-0.427246,-0.183105
0.958199,0.899409,0.050192,0.915527,0.366211,-1.892090
1.067818,0.879390,0.083151,-6.896973,-12.756348,-3.417969
1.005318,0.933833,0.061667,-2.441406,-11.779785,-9.216309
0.963326,0.941890,0.008444,-3.479004,-9.704590,-8.178711
0.950631,0.928706,0.049460,-3.662109,-0.915527,-6.958008
0.995064,0.912349,0.091452,-1.464844,4.394531,-5.310059
0.937203,0.934810,0.083395,-1.403809,-10.742188,-6.042480
0.976266,0.933833,0.020895,-2.075195,-10.559082,-2.807617
0.977730,0.926020,0.066305,-0.915527,2.807617,-2.624512
0.951363,0.931636,0.033590,-0.976562,4.760742,-1.403809
1.012154,0.941401,0.091208,-1.708984,2.929688,-0.976562
0.940377,0.945308,0.033590,3.173828,-1.098633,-2.136230
0.937203,0.929438,0.091208,0.183105,83.374023,4.455566
0.986519,0.948726,0.238669,-17.700195,46.875000,0.793457
0.931100,0.925532,0.233542,-0.305176,-10.498047,-6.713867
0.979928,0.917720,0.232077,2.746582,-28.625488,-3.906250
