ax,ay,az,gx,gy,gz
0.965069,0.991322,0.108314,1.342773,0.854492,1.220703
0.969219,0.988637,0.082191,0.854492,1.159668,0.732422
0.968243,0.969838,0.089271,-1.159668,2.746582,0.305176
0.970196,0.982778,0.106361,0.976562,-1.098633,-1.098633
0.959209,0.982778,0.085365,0.732422,-1.464844,-0.671387
0.963360,0.993520,0.115882,0.427246,2.319336,-0.122070
0.967754,0.986928,0.103675,0.061035,-1.098633,-0.305176
0.990215,0.977651,0.108314,1.464844,1.525879,0.061035
0.970440,0.983510,0.100746,-0.671387,-1.159668,-0.732422
0.966045,0.990590,0.108314,0.244141,1.525879,0.793457
0.978985,0.981557,0.093666,0.854492,0.610352,0.976562
0.967266,0.988881,0.095863,1.159668,0.976562,0.427246
0.967022,0.992055,0.086341,1.281738,1.953125,1.098633
0.977764,0.982289,0.095619,0.671387,-0.732422,-0.366211
0.969219,0.998158,0.109535,0.671387,1.159668,-0.244141
0.969952,0.993276,0.097328,0.305176,-0.122070,-0.854492
0.970928,0.990590,0.117347,1.220703,1.281738,0.854492
0.974102,0.978627,0.090980,1.281738,0.427246,-1.281738
0.972881,0.980580,0.086341,1.586914,1.281738,-0.183105
0.966289,1.002553,0.094154,1.281738,3.234863,2.075195
0.974834,0.989858,0.084388,1.037598,0.061035,0.976562
0.998028,0.987660,0.101722,0.671387,3.723145,0.610352
0.977764,0.990590,0.105384,0.610352,1.403809,-0.305176
0.957989,0.989858,0.114173,0.061035,-2.380371,0.366211
0.963360,0.979848,0.116859,0.244141,-0.427246,0.427246
0.990215,0.987416,0.108070,0.854492,1.037598,2.075195
0.962383,0.983266,0.101722,0.000000,-0.183105,0.000000
0.973125,0.990102,0.103920,-0.305176,-0.366211,1.281738
0.973125,0.979848,0.105629,0.244141,-1.647949,0.366211
0.965313,0.985463,0.099769,0.915527,-0.793457,0.366211
0.956036,0.975697,0.082679,1.586914,-0.061035,-0.305176
0.970928,0.981557,0.101478,0.427246,0.671387,0.732422
0.986553,0.993276,0.084388,0.610352,-1.281738,1.281738
0.973125,0.994740,0.061927,0.366211,-1.586914,-0.976562
0.972149,0.992299,0.086341,-0.488281,-1.770020,-2.441406
0.966289,0.975942,0.097816,-0.366211,1.525879,-0.183105
0.956280,0.989613,0.082435,0.244141,-0.122070,0.244141
0.984600,0.986928,0.098060,-0.976562,0.793457,-0.732422
0.962139,0.979115,0.098060,0.366211,0.366211,-0.183105
0.965801,0.992787,0.084877,2.563477,-0.427246,-1.159668
0.964825,0.993031,0.080482,0.976562,-0.061035,0.427246
0.950909,0.987904,0.102699,2.563477,0.427246,0.671387
0.973125,0.995473,0.075843,2.929688,0.183105,0.976562
1.002178,0.985463,0.085365,1.525879,6.042480,2.502441
0.956036,0.995229,0.099769,0.122070,0.000000,-0.732422
0.950909,0.981313,0.091957,0.244141,2.075195,1.159668
0.964336,0.978871,0.098060,2.319336,-0.122070,1.037598
0.975567,0.993764,0.065345,1.342773,0.366211,1.892090
0.981670,0.975209,0.101966,1.159668,-0.061035,-0.671387
0.970928,0.995473,0.088050,0.488281,-0.732422,-1.098633
0.982403,0.995717,0.077552,0.183105,0.976562,-0.244141
0.969463,0.984487,0.097816,0.061035,-0.854492,-1.281738
0.952373,0.974477,0.085853,-0.366211,0.488281,1.037598
0.967266,0.993276,0.079994,0.427246,-0.610352,1.586914
0.969952,0.983022,0.099769,0.671387,2.624512,3.234863
0.983623,0.979360,0.103187,1.159668,-0.183105,1.342773
0.973125,0.983022,0.085853,2.014160,0.366211,1.281738
0.993877,0.987904,0.085853,0.610352,0.061035,1.281738
0.990704,0.995717,0.072425,1.953125,0.244141,0.488281
0.965069,0.993764,0.091957,1.525879,0.854492,0.610352
0.966045,0.966664,0.087074,1.159668,-1.037598,-1.220703
0.975323,0.973256,0.091468,0.976562,2.014160,1.586914
0.986065,0.987660,0.078285,1.220703,-0.915527,0.061035
0.987530,0.989369,0.101966,1.525879,1.831055,0.244141
0.957256,0.969106,0.077552,1.586914,0.183105,-1.342773
0.969952,0.985463,0.081703,0.732422,1.159668,0.305176
0.972393,0.991567,0.080726,-0.122070,2.502441,0.915527
0.969952,0.975697,0.082679,1.037598,1.342773,1.464844
0.960674,0.995229,0.068519,0.488281,2.136230,0.488281
0.959698,0.972279,0.103431,0.427246,1.098633,2.502441
0.973370,0.986684,0.077064,-0.732422,2.746582,3.845215
0.967998,0.982533,0.091713,-1.342773,-1.831055,1.770020
0.981182,0.965932,0.110755,0.000000,2.441406,3.173828
0.969219,0.990834,0.094398,1.708984,1.098633,0.610352
0.978008,0.969838,0.079994,1.281738,0.305176,-0.244141
0.959942,0.975697,0.081214,0.976562,1.525879,0.976562
0.986309,0.980092,0.078529,1.403809,0.610352,0.854492
0.975811,0.953237,0.080238,0.976562,1.647949,-0.183105
0.964580,0.975453,0.099037,1.586914,0.732422,-1.464844
0.982891,0.966664,0.075599,1.892090,0.244141,-0.732422
0.974346,0.978383,0.088295,0.610352,1.159668,0.000000
0.979229,0.973500,0.073890,-0.671387,0.610352,-1.525879
0.966778,0.980580,0.075111,-0.854492,0.122070,-1.342773
0.974102,0.971303,0.102455,-0.488281,1.220703,0.305176
0.967022,0.974721,0.077552,-0.366211,1.464844,1.098633
0.976788,0.973012,0.093910,-1.037598,0.915527,0.305176
0.964580,0.973500,0.086341,0.671387,1.159668,1.892090
0.990215,0.981557,0.076820,0.549316,0.000000,-0.183105
0.978008,0.983510,0.092201,1.953125,0.244141,-0.793457
0.970928,0.970815,0.080482,0.305176,-1.220703,-0.305176
0.993633,0.982289,0.091957,2.258301,0.000000,-1.159668
0.982159,0.982533,0.086341,2.502441,-0.305176,0.000000
0.963360,0.970571,0.070472,1.098633,-0.061035,-0.549316
0.962871,0.994008,0.076576,0.122070,0.122070,-1.281738
0.981670,0.971547,0.082923,-0.610352,-1.586914,-1.159668
0.959209,0.984487,0.110511,-0.793457,1.831055,0.122070
0.970684,0.957143,0.082435,0.671387,0.366211,-1.098633
0.979961,0.985707,0.073890,0.488281,3.540039,-0.183105
0.968243,0.977406,0.086341,0.305176,1.098633,-0.244141
0.973125,0.998158,0.083900,1.647949,0.854492,-0.793457
0.995098,0.982289,0.089271,0.854492,1.159668,0.549316
0.971905,0.984242,0.061683,0.976562,0.732422,-1.098633
0.975079,0.962026,0.037269,0.305176,0.915527,-0.732422
0.952129,0.979604,0.067543,0.122070,1.159668,1.892090
1.000469,0.982533,0.065101,0.549316,0.549316,0.854492
0.966534,0.984242,0.115394,0.976562,1.464844,0.854492
0.978496,0.985707,0.106361,0.488281,0.061035,0.000000
0.942120,0.973744,0.117591,0.366211,2.319336,0.244141
0.969219,0.963246,0.098793,0.854492,-1.220703,0.854492
0.971661,0.971303,0.055580,-0.061035,-0.122070,1.403809
0.967510,0.984487,0.065834,1.403809,-0.305176,-0.183105
0.977764,0.979115,0.089027,0.732422,0.061035,0.061035
0.979473,0.990346,0.108070,1.342773,0.305176,0.183105
0.953350,0.999135,0.108802,1.098633,1.281738,0.183105
0.975811,0.984487,0.118568,1.220703,1.770020,0.183105
0.967754,0.992299,0.079261,0.610352,-0.183105,-0.244141
0.991192,0.982778,0.078529,1.037598,0.427246,0.061035
0.970440,0.973500,0.064369,0.854492,0.183105,0.122070
0.996319,0.976430,0.068763,2.014160,-0.976562,-0.183105
0.965557,0.980336,0.080482,1.159668,-0.488281,-0.488281
0.964825,1.002797,0.092201,0.244141,0.427246,0.244141
0.965069,0.988393,0.110511,0.366211,1.525879,1.098633
0.978496,0.986928,0.095619,0.305176,0.610352,0.244141
0.967510,0.996938,0.087806,1.037598,2.075195,0.305176
0.979229,0.973988,0.038978,0.122070,-0.061035,0.183105
0.981914,0.995717,0.056312,0.366211,-0.183105,0.854492
0.974102,0.999867,0.078285,0.549316,1.037598,1.037598
0.974834,0.983754,0.095130,1.342773,1.586914,1.953125
0.974346,0.988637,0.088783,1.098633,0.610352,0.305176
0.975811,0.976674,0.072425,1.525879,0.122070,0.427246
0.981914,0.990834,0.081703,1.708984,0.305176,-0.366211
0.974102,0.993031,0.074134,1.159668,0.061035,-0.183105
0.946270,0.979604,0.084388,1.281738,2.563477,-0.244141
0.969707,0.986928,0.074379,0.610352,-0.732422,-1.281738
0.970440,0.978627,0.081459,0.366211,0.183105,-0.244141
0.966534,0.981557,0.087562,0.427246,1.037598,-0.183105
0.974346,0.990834,0.081214,1.220703,1.464844,-0.061035
0.959942,0.971791,0.091224,0.122070,0.610352,-0.671387
0.983623,0.976430,0.084877,2.136230,-0.305176,0.122070
0.966534,0.981557,0.082679,1.159668,-0.488281,0.732422
0.966778,0.999135,0.068519,-1.098633,0.793457,1.037598
0.991436,0.995717,0.078773,0.976562,1.953125,1.708984
0.975567,0.989858,0.082435,0.732422,-0.732422,-0.122070
0.985088,0.962026,0.080970,0.793457,0.183105,-0.183105
0.969707,0.972035,0.077064,0.122070,0.244141,0.427246
0.997539,0.987416,0.075111,0.732422,-0.854492,0.610352
0.969952,0.990834,0.076088,0.976562,1.586914,0.366211
0.985821,0.978627,0.081703,0.915527,1.220703,0.549316
0.987041,0.987660,0.081459,0.732422,2.502441,-0.793457
0.985088,1.001820,0.081214,0.610352,2.075195,-1.159668
0.965557,0.982045,0.094398,0.976562,1.953125,-1.220703
0.971416,0.970571,0.088295,1.953125,0.000000,-1.281738
0.964336,0.997670,0.068275,2.258301,2.075195,-0.183105
0.981670,0.982533,0.063880,0.488281,-1.159668,-0.610352
0.975323,0.970082,0.097328,0.122070,0.671387,0.122070
0.973614,0.986440,0.073158,0.366211,-0.915527,-0.854492
0.972393,1.001332,0.081459,0.671387,1.220703,-0.061035
0.971172,0.999623,0.070961,0.976562,0.122070,0.061035
0.953106,0.990590,0.113197,1.342773,2.075195,1.892090
0.985577,0.982778,0.094398,1.647949,1.525879,1.098633
0.969952,0.968373,0.087562,2.075195,2.929688,2.258301
0.977276,0.990102,0.078529,0.854492,1.159668,-0.061035
0.983623,0.993031,0.078285,1.220703,0.610352,0.061035
0.963116,0.982533,0.075111,0.488281,0.976562,0.427246
0.965557,0.985707,0.083656,0.976562,-0.976562,-0.549316
0.973370,0.987904,0.077552,0.366211,0.976562,1.525879
0.981914,0.973012,0.103187,0.610352,2.319336,0.183105
0.974102,0.994008,0.102699,0.305176,-0.488281,-0.549316
0.964092,0.984242,0.084144,0.671387,1.464844,-0.427246
0.958233,0.975697,0.087806,1.159668,1.342773,1.892090
0.969463,0.984242,0.079505,0.000000,-1.586914,-1.098633
0.989483,0.986196,0.090980,0.854492,1.831055,1.464844
0.974346,0.990834,0.090736,0.305176,-1.098633,0.488281
0.977032,0.991811,0.090492,-0.244141,-0.427246,0.732422
0.982891,0.986928,0.088295,0.976562,-1.037598,0.732422
0.974834,0.981557,0.072181,0.854492,0.427246,1.220703
0.969219,0.977895,0.062660,0.610352,0.549316,1.464844
0.966778,0.988149,0.075355,2.441406,0.793457,1.953125
0.968731,0.975453,0.060707,1.831055,2.075195,4.943848
0.994610,0.973744,0.089271,0.488281,0.000000,3.784180
0.991680,0.989613,0.079505,0.793457,1.281738,1.037598
0.981914,0.965932,0.076088,-0.183105,-0.305176,0.000000
0.965801,0.973012,0.095130,-0.488281,2.563477,0.366211
0.977032,0.966420,0.075111,-0.915527,-2.014160,-1.342773
0.979961,0.988881,0.068519,0.915527,1.770020,-0.122070
0.964825,0.967153,0.091713,0.488281,0.366211,0.061035
0.967754,0.967641,0.088539,1.770020,2.502441,1.464844
0.973370,0.971547,0.078529,-0.976562,1.403809,-0.305176
0.982159,0.981557,0.078773,0.183105,2.136230,0.793457
0.966778,0.973012,0.077797,0.427246,-0.671387,-1.342773
0.980450,0.973988,0.063636,0.610352,0.915527,0.183105
0.977276,0.980092,0.064125,-0.183105,1.159668,0.183105
0.959942,0.970571,0.073158,0.549316,1.159668,1.220703
0.972393,0.971547,0.073890,-0.305176,0.915527,1.770020
0.970440,0.979115,0.077552,0.610352,2.136230,1.159668
0.961895,0.975697,0.070716,0.732422,0.549316,1.159668
0.985088,0.976918,0.068031,0.122070,1.098633,0.610352
0.992413,0.969838,0.084388,-0.793457,2.075195,0.854492
0.995586,0.982045,0.077308,0.549316,-0.305176,-0.976562
0.974834,0.982533,0.078529,0.122070,1.464844,0.061035
0.984356,0.974721,0.081214,-0.244141,0.122070,-0.732422
0.967754,0.981801,0.081459,0.183105,1.770020,-0.427246
0.975567,0.980824,0.088050,0.122070,3.173828,-0.305176
0.961895,0.965444,0.082191,0.915527,1.525879,-0.122070
0.983135,0.979115,0.077552,1.464844,-0.427246,-1.464844
0.977032,0.975209,0.059242,0.122070,2.380371,-0.061035
0.987774,0.980580,0.077308,0.000000,1.464844,-0.976562
0.981670,0.968617,0.079750,0.671387,1.342773,-2.563477
0.974590,0.975209,0.085121,0.854492,1.098633,0.427246
0.962139,0.957143,0.094398,0.915527,1.770020,0.244141
0.970928,0.971059,0.081214,0.305176,1.220703,-0.305176
0.983135,0.984487,0.073646,0.610352,0.427246,0.793457
0.990459,0.972279,0.092445,-0.183105,0.915527,1.281738
0.971416,0.969594,0.091224,0.427246,1.403809,1.770020
0.977032,0.987172,0.066078,-0.183105,-0.244141,0.915527
0.996807,0.982045,0.094154,0.610352,4.089355,2.929688
1.000713,0.994985,0.085853,-0.183105,-1.647949,0.305176
0.964092,0.966420,0.093177,0.732422,3.112793,1.281738
0.970196,0.978383,0.073402,0.854492,0.793457,-0.793457
0.971661,0.964955,0.082923,0.061035,0.793457,-0.427246
0.971416,0.973988,0.089515,0.244141,0.366211,-0.061035
0.982159,0.973500,0.079750,1.342773,0.854492,-0.671387
0.980694,0.982045,0.080482,0.488281,2.807617,-0.305176
0.977032,0.973744,0.095619,0.061035,2.380371,-0.793457
0.964336,0.948598,0.109047,0.183105,1.342773,-0.854492
0.968731,0.961293,0.094398,0.244141,1.037598,0.000000
0.971172,0.973012,0.080726,0.488281,1.037598,0.183105
0.967510,0.974233,0.090492,0.122070,1.770020,0.976562
0.965313,0.959096,0.105140,0.488281,0.915527,2.258301
0.969463,0.972524,0.081703,0.122070,1.831055,0.732422
0.982647,0.960805,0.102943,0.061035,1.586914,0.671387
0.957989,0.960805,0.085853,0.976562,0.732422,-0.061035
0.964092,0.974477,0.081703,0.549316,-0.427246,0.427246
0.975079,0.959096,0.093910,0.061035,0.732422,0.793457
0.970196,0.961293,0.094642,0.366211,-0.122070,-0.427246
0.984356,0.985463,0.082191,0.000000,0.061035,-0.366211
0.974590,0.965932,0.083900,0.183105,0.488281,0.000000
0.970440,0.967397,0.105140,0.061035,1.892090,0.244141
0.963360,0.965199,0.084388,0.305176,1.342773,0.854492
0.977032,0.969594,0.080970,0.793457,0.671387,1.159668
0.978252,0.969350,0.083412,0.976562,1.770020,1.342773
0.969463,0.968129,0.085853,0.305176,-0.183105,-1.220703
0.965801,0.963979,0.097328,0.671387,2.136230,2.014160
0.970196,0.961049,0.092933,-0.183105,-1.586914,0.610352
0.989971,0.975453,0.091468,0.793457,0.610352,-0.061035
0.980694,0.971547,0.075843,1.464844,0.000000,0.976562
0.970196,0.969838,0.096595,0.793457,0.915527,2.075195
0.986553,0.964223,0.085365,1.037598,2.319336,0.610352
0.960430,0.959828,0.080482,0.915527,0.427246,0.366211
0.963116,0.970082,0.081214,0.732422,1.037598,0.976562
0.960674,0.967641,0.093666,0.000000,-0.061035,0.854492
0.976788,0.967641,0.103187,0.915527,0.427246,0.671387
0.983379,0.965444,0.096839,1.220703,0.732422,0.244141
0.976299,0.959828,0.093177,1.037598,0.671387,-0.488281
0.962139,0.976186,0.096351,0.854492,-1.159668,-2.136230
0.955059,0.991322,0.082679,0.305176,-3.723145,-1.098633
0.967510,0.967153,0.087562,0.305176,-1.098633,-0.976562
0.968487,0.965199,0.098304,1.831055,2.136230,0.854492
0.957500,0.980824,0.095863,0.610352,1.098633,0.305176
0.971661,0.975942,0.083168,1.159668,2.990723,0.183105
0.981426,0.971547,0.093177,1.464844,-1.647949,-1.403809
0.980938,0.992299,0.067543,1.770020,4.516602,-0.183105
0.966289,0.964711,0.080726,0.915527,-0.244141,-0.976562
0.975079,0.983998,0.089759,0.000000,0.732422,-1.892090
0.961407,0.964711,0.095863,0.366211,0.305176,-0.183105
0.967510,0.974233,0.086586,0.061035,1.159668,0.610352
0.972637,0.964467,0.088050,-0.732422,-2.014160,-0.183105
0.968243,0.990102,0.081703,0.305176,1.464844,1.647949
0.988995,0.970815,0.083168,0.549316,3.051758,1.159668
0.972393,0.986928,0.087318,0.000000,1.770020,0.915527
0.981426,0.966176,0.060218,0.244141,1.281738,0.244141
0.964336,0.981069,0.100257,-0.061035,-0.793457,-0.488281
0.964580,0.984975,0.097572,-1.037598,-2.197266,-0.854492
0.980205,0.963246,0.092689,0.793457,5.065918,1.281738
0.990948,0.971303,0.100502,0.427246,2.990723,0.427246
0.976299,0.966420,0.093666,1.037598,2.380371,-0.854492
0.972881,0.972524,0.086586,1.525879,2.197266,-0.122070
0.957500,0.966176,0.090004,1.037598,1.098633,-0.305176
0.977764,0.969350,0.100257,1.220703,-0.183105,-0.366211
0.972149,0.974965,0.074623,1.220703,-0.854492,-1.159668
0.965557,0.959584,0.103187,0.549316,1.586914,-0.915527
0.969952,0.978139,0.087074,1.403809,0.854492,-0.793457
0.978496,0.973500,0.080238,1.281738,-1.037598,-0.671387
0.957012,0.982533,0.112709,0.793457,0.305176,-0.549316
0.962627,0.964467,0.093666,0.854492,1.892090,0.183105
0.983868,0.967641,0.097328,0.244141,-0.732422,0.122070
0.956036,0.979604,0.085853,0.610352,1.098633,0.854492
0.969707,0.962026,0.106849,0.427246,-0.915527,-1.098633
0.966534,0.967397,0.086341,0.671387,0.854492,0.427246
0.955303,0.968862,0.092201,0.671387,-0.305176,-0.366211
0.956524,0.976674,0.094154,1.159668,1.647949,0.244141
0.984112,0.976918,0.095375,1.220703,0.610352,-0.366211
0.969952,0.969838,0.089271,0.427246,-0.061035,0.366211
0.979473,0.982045,0.094398,1.770020,3.173828,-0.549316
0.967266,0.981801,0.087806,1.770020,2.136230,-0.549316
0.967510,0.976674,0.093666,2.014160,1.647949,1.281738
0.971416,0.968862,0.071205,0.915527,1.831055,1.647949
0.971172,0.978383,0.092445,0.427246,2.258301,1.403809
0.969219,0.986684,0.088050,1.281738,-0.183105,-0.488281
0.984600,0.983754,0.092933,1.525879,1.770020,0.366211
0.970928,0.976918,0.084144,0.793457,1.831055,-0.793457
0.958721,0.969838,0.092445,1.220703,0.061035,0.000000
0.969463,0.980092,0.090980,2.075195,2.014160,0.488281
0.960186,0.977162,0.086097,1.586914,0.915527,0.061035
0.966045,0.977895,0.083168,2.136230,0.915527,-0.976562
0.983868,0.982533,0.076088,2.197266,0.427246,-0.122070
0.991924,0.989369,0.074379,1.159668,0.366211,-0.976562
0.967022,0.990102,0.106117,1.770020,0.000000,-0.549316
0.990704,0.972035,0.086830,1.098633,1.892090,0.122070
0.960186,0.981069,0.097084,0.488281,0.305176,-1.098633
0.977276,0.969838,0.107093,1.525879,2.868652,-0.183105
0.961163,0.973256,0.110023,2.075195,1.770020,0.061035
0.964092,0.979604,0.093177,1.647949,1.281738,-0.061035
0.970684,0.993520,0.088783,0.488281,1.281738,1.159668
0.983623,0.990590,0.069740,0.305176,0.366211,0.610352
0.958477,0.977162,0.095130,0.122070,1.281738,-0.610352
0.977520,0.980336,0.090492,0.122070,0.122070,-0.854492
0.960918,0.981801,0.096839,0.061035,0.366211,-0.915527
0.974346,0.988637,0.099281,0.671387,1.525879,0.366211
0.956036,0.988393,0.088050,1.098633,0.976562,1.831055
0.985577,0.975697,0.100746,0.549316,1.281738,2.075195
0.978252,0.977406,0.097572,1.403809,1.525879,1.586914
0.976055,0.988393,0.087806,0.427246,2.014160,1.098633
0.991924,0.980092,0.098304,1.586914,1.647949,0.915527
0.977032,0.994740,0.073890,0.610352,-0.732422,-1.342773
0.968731,0.985463,0.092933,0.732422,0.183105,0.732422
0.983623,0.981069,0.079261,0.854492,0.305176,0.549316
0.961651,0.988881,0.065834,1.037598,-0.061035,-0.061035
0.982891,0.985951,0.100257,-0.854492,0.488281,0.122070
0.987286,0.979360,0.088050,0.488281,-2.380371,-0.183105
0.955791,0.967641,0.078773,0.183105,0.854492,0.000000
0.971416,0.970326,0.084877,-0.305176,-0.061035,0.305176
0.975811,0.969106,0.078285,-0.061035,-0.366211,-0.305176
0.976543,0.972768,0.091713,-0.305176,-0.427246,0.732422
0.976788,0.982045,0.086830,0.000000,-0.366211,1.403809
0.978985,0.973500,0.067543,0.305176,1.159668,1.342773
0.971661,0.983022,0.096351,0.305176,0.671387,2.014160
0.976299,0.977162,0.104652,2.258301,2.136230,2.136230
0.982891,0.973744,0.104652,2.624512,1.342773,0.732422
0.963848,0.975697,0.086097,2.685547,1.037598,1.220703
0.963848,0.974233,0.074623,1.403809,-1.098633,-0.183105
0.967266,0.980336,0.065345,0.671387,1.037598,1.098633
0.969952,0.990102,0.093422,0.183105,-1.037598,0.244141
0.979229,0.962270,0.072425,0.427246,0.976562,-0.549316
0.964580,0.972768,0.092445,1.220703,-0.427246,0.366211
0.988018,0.971791,0.082923,1.037598,2.380371,1.708984
0.972393,0.979360,0.076088,-0.061035,-1.647949,-0.549316
0.973370,0.984975,0.072425,0.183105,-0.122070,0.000000
0.964825,0.971791,0.089759,-0.244141,1.281738,2.014160
0.971661,0.983022,0.081947,-0.366211,0.671387,0.183105
0.979473,0.977651,0.087074,-0.366211,2.807617,-0.061035
0.970440,0.976430,0.088539,0.244141,-0.061035,-0.366211
0.967998,0.976918,0.096839,0.061035,1.342773,1.281738
0.970928,0.975453,0.081214,0.610352,1.220703,0.610352
0.968731,0.962514,0.072914,-0.061035,2.014160,0.610352
0.981426,0.971791,0.091713,-0.732422,0.732422,1.525879
0.984600,0.967153,0.081947,0.671387,1.281738,0.915527
0.977276,0.998403,0.086830,-0.488281,-0.610352,-0.305176
0.963360,0.966420,0.068519,-0.366211,0.122070,-0.549316
0.964580,0.970571,0.101966,-0.366211,0.488281,-0.244141
0.972637,0.972279,0.092445,0.305176,0.732422,-0.305176
0.964580,0.976186,0.098548,-0.366211,0.305176,-0.061035
0.977520,0.962758,0.099769,-0.305176,1.892090,0.061035
0.974590,0.974477,0.076332,-0.366211,1.281738,0.366211
0.966045,0.982533,0.091713,-0.732422,1.464844,0.915527
0.979229,0.981313,0.081459,-0.122070,1.159668,0.671387
0.982403,0.979848,0.097572,0.122070,2.075195,1.159668
0.966045,0.968862,0.091224,-0.305176,0.854492,1.281738
0.960186,0.971059,0.094642,0.427246,0.488281,1.342773
0.978252,0.972279,0.087318,0.732422,1.220703,1.586914
0.960918,0.983510,0.094886,1.037598,0.305176,1.220703
0.978985,0.971791,0.084632,0.915527,0.061035,1.037598
0.966534,0.964223,0.075111,0.793457,-0.183105,-0.183105
0.967510,0.988637,0.077064,0.671387,-1.037598,0.244141
0.973614,0.968862,0.085365,0.732422,-0.183105,1.586914
0.967998,0.963490,0.072670,2.075195,-0.732422,0.305176
0.962383,0.954946,0.090980,1.159668,-0.427246,2.014160
0.985577,0.963490,0.070716,1.220703,-0.305176,1.220703
0.979229,0.956166,0.100257,0.122070,-0.366211,0.671387
0.966534,0.963490,0.084144,1.342773,0.976562,0.061035
0.974590,0.980580,0.071937,0.366211,0.732422,0.549316
0.969463,0.968129,0.067054,0.549316,0.854492,0.915527
0.965313,0.956166,0.083656,-0.305176,0.305176,0.732422
0.978741,0.967641,0.053627,-0.671387,1.525879,-0.305176
0.969463,0.951528,0.091224,0.976562,0.427246,1.220703
0.969219,0.959096,0.071205,-0.305176,3.173828,1.098633
0.987041,0.977651,0.081214,0.549316,2.075195,1.159668
0.979717,0.969106,0.071449,-0.061035,0.366211,0.854492
0.946270,0.950551,0.079505,0.305176,3.601074,3.601074
0.957500,0.958608,0.093666,1.403809,0.427246,3.234863
0.996075,0.969838,0.069740,-0.122070,4.211426,3.173828
0.999248,0.950063,0.062172,-0.610352,1.220703,-0.610352
0.992901,0.950063,0.071449,0.122070,2.868652,-0.122070
0.967998,0.949819,0.097816,-2.502441,-2.624512,-1.342773
0.975323,0.951528,0.105629,-0.915527,-0.122070,0.854492
0.975567,0.954213,0.107093,3.601074,-1.037598,-0.793457
0.977032,0.954213,0.087074,3.540039,2.258301,-0.122070
0.984600,0.974721,0.075355,1.708984,0.549316,-0.244141
0.983135,0.946156,0.077797,2.197266,2.319336,-0.244141
0.929180,0.957143,-0.033776,-5.920410,-17.578125,1.098633
1.026836,0.916371,0.152992,-9.521484,-3.967285,0.305176
1.004375,0.968373,0.091957,0.549316,-8.728027,-2.136230
1.010235,1.081654,0.064857,1.159668,23.681641,-8.239746
