ax,ay,az,gx,gy,gz
0.958784,1.045369,0.223370,2.624512,0.061035,0.915527
0.972944,1.027303,0.213605,2.380371,-0.366211,-1.831055
0.958784,1.048787,0.210675,3.112793,-0.976562,-1.220703
0.957075,1.034139,0.237531,3.173828,0.000000,0.427246
0.943647,1.052205,0.221661,1.342773,-3.662109,-0.671387
0.966352,1.037068,0.231915,2.929688,-0.732422,1.037598
0.974409,1.029500,0.233624,1.403809,-0.061035,0.854492
0.973676,1.037068,0.254376,2.624512,-2.868652,-0.427246
0.967085,1.050740,0.259503,2.441406,-1.281738,-0.793457
0.971235,1.015584,0.212384,0.732422,-1.525879,-2.197266
0.935835,1.020223,0.250470,0.610352,-0.915527,-1.586914
0.945112,1.036824,0.247296,1.831055,2.502441,-0.671387
0.931684,1.047810,0.253156,1.708984,-2.441406,0.976562
0.973676,1.032674,0.284894,4.516602,-4.272461,0.854492
0.976850,1.050252,0.230450,3.784180,-3.784180,-0.549316
0.969770,1.026814,0.229230,3.234863,-3.112793,-1.708984
0.961713,1.033162,0.224103,1.770020,-3.051758,-1.831055
0.968061,1.041463,0.215070,1.586914,-3.723145,-5.432129
0.930219,1.038045,0.228986,2.258301,-3.662109,-4.821777
0.960005,1.009236,0.233624,1.953125,-3.601074,-0.915527
0.955366,1.050008,0.246808,3.295898,-4.516602,-0.061035
0.959028,1.045857,0.254865,2.929688,-3.051758,0.854492
0.944868,1.033894,0.213361,3.112793,-2.685547,0.427246
0.966840,1.033650,0.238751,1.892090,-0.671387,-0.854492
0.949506,1.039510,0.246075,3.784180,-3.784180,-1.831055
0.965864,1.065633,0.208722,2.807617,0.061035,-1.281738
0.955854,1.026814,0.195294,1.953125,-0.732422,-0.976562
0.938276,1.041707,0.232159,3.295898,-1.708984,0.793457
0.946088,1.048543,0.258771,4.028320,0.793457,2.563477
0.996137,1.048787,0.256818,3.051758,-1.098633,2.685547
0.974409,1.024129,0.248761,2.502441,-0.305176,-1.831055
0.980512,1.021687,0.233868,1.953125,-0.671387,-4.760742
0.963911,1.029012,0.220441,2.563477,-0.305176,-5.676270
0.900434,1.058308,0.258282,0.671387,-0.549316,-0.183105
0.953657,1.051228,0.215558,3.906250,-1.770020,3.845215
0.993696,1.033162,0.204816,4.516602,-2.014160,1.525879
0.976118,1.031697,0.195050,2.502441,-1.586914,-1.281738
0.943647,1.024861,0.276105,1.037598,-2.258301,-2.258301
0.950483,1.046834,0.198712,3.295898,-0.610352,-1.281738
0.954633,1.048299,0.272931,3.540039,-3.295898,0.000000
0.959272,1.045369,0.254376,3.417969,-2.807617,-1.037598
0.958540,1.039266,0.237286,3.967285,-1.953125,-1.892090
0.939985,1.053182,0.177960,0.366211,-3.295898,-1.159668
0.963422,1.034383,0.263654,2.746582,-2.929688,-1.281738
0.931684,1.050984,0.281964,2.258301,-0.976562,-1.464844
0.958784,1.033406,0.256818,2.868652,-3.479004,-0.183105
0.934126,1.039754,0.233868,4.028320,-2.075195,1.464844
0.966840,1.042683,0.197736,3.601074,-0.427246,1.708984
0.990522,1.033650,0.219220,3.234863,-5.676270,1.342773
0.987592,1.052693,0.246320,0.976562,-4.333496,-0.793457
0.970991,1.024617,0.246808,-0.427246,-3.234863,-2.441406
0.939741,1.049764,0.193097,-0.183105,-3.479004,-3.417969
0.953413,1.050252,0.225568,0.122070,0.488281,0.732422
0.945356,1.032185,0.247540,2.685547,-0.366211,1.281738
0.981001,1.040486,0.244855,3.417969,-1.098633,-0.732422
0.958540,1.042195,0.226300,1.647949,-1.770020,-0.793457
0.947065,1.018269,0.292462,2.319336,-4.211426,0.244141
0.992719,1.066121,0.198224,3.234863,-3.967285,0.061035
0.947553,1.048543,0.189923,3.295898,-2.807617,-2.136230
0.961225,1.033162,0.212140,0.366211,-0.366211,-1.281738
0.951948,1.023885,0.184552,2.746582,-2.441406,-1.647949
0.979292,1.048787,0.188214,3.479004,-3.051758,-0.915527
0.949262,1.053670,0.212140,5.004883,-3.051758,-1.342773
0.940229,1.052937,0.191144,3.479004,-0.732422,0.671387
1.001508,1.058064,0.161847,3.173828,-0.183105,-0.671387
0.952924,1.030476,0.222638,5.004883,-1.708984,-2.075195
0.970747,1.060750,0.140607,4.333496,0.244141,-1.586914
0.957807,1.042683,0.182843,5.920410,-2.929688,-0.915527
0.955366,1.042439,0.163556,5.737305,-2.136230,-0.305176
0.963667,1.042683,0.170880,4.882812,-3.662109,1.403809
0.957563,1.027303,0.259747,4.943848,-0.793457,0.915527
0.958784,1.050740,0.263654,3.234863,-1.220703,-1.770020
0.978315,1.043660,0.209454,1.708984,-2.319336,-1.098633
0.964399,1.064900,0.190900,2.380371,-2.685547,-2.380371
0.943891,1.024617,0.226788,3.234863,-1.831055,-1.770020
0.960005,1.068562,0.230206,2.685547,-1.098633,-1.159668
0.949018,1.031453,0.195050,4.516602,-2.624512,-0.305176
0.968549,1.031697,0.180157,3.662109,-3.295898,-0.915527
0.979780,1.038045,0.210187,3.173828,-0.976562,-0.305176
0.962446,1.043660,0.243390,3.723145,-2.441406,-1.037598
0.970014,1.034871,0.166486,3.417969,-0.488281,-2.807617
0.956587,1.058308,0.206036,2.136230,-1.647949,-2.258301
0.951215,1.046834,0.241681,2.014160,-2.136230,-1.892090
0.959760,1.042439,0.243878,4.028320,-1.708984,-0.854492
0.961958,1.051717,0.199933,3.723145,-2.319336,0.427246
0.953657,1.049275,0.264142,3.234863,-0.854492,-0.671387
0.989057,1.031209,0.205304,3.112793,-3.295898,-0.122070
0.957319,1.074910,0.187726,1.281738,-0.488281,-0.122070
0.976118,1.051717,0.192365,1.342773,-1.586914,-1.770020
0.944868,1.042195,0.211652,1.708984,-0.427246,-0.549316
0.955610,1.065389,0.174542,0.793457,-3.417969,-1.647949
0.979292,1.058308,0.243878,1.403809,-2.136230,-1.037598
0.950727,1.061238,0.204327,2.685547,-2.014160,-0.549316
0.981489,1.049764,0.198956,1.831055,-2.075195,-0.183105
0.977583,1.078328,0.215070,1.037598,0.427246,-2.136230
0.955122,1.063191,0.237286,-0.305176,-1.037598,-0.366211
0.953169,1.058064,0.232648,1.708984,-0.976562,0.061035
0.964399,1.051473,0.221417,2.075195,-1.281738,-0.366211
0.962690,1.036824,0.179425,2.075195,-4.272461,-1.342773
0.972944,1.041707,0.176251,-0.427246,-2.929688,-0.488281
0.964399,1.060017,0.207990,0.671387,-6.103516,0.122070
0.977827,1.050252,0.127423,-0.061035,-2.502441,-0.610352
0.952192,1.044392,0.215070,1.342773,-2.563477,-1.586914
0.958296,1.038045,0.186749,0.549316,-4.028320,-1.647949
0.965864,1.055135,0.176740,1.281738,-2.197266,-1.525879
0.929975,1.058308,0.212872,2.014160,-2.014160,-0.671387
0.993452,1.057332,0.206769,0.915527,-1.464844,0.000000
0.959028,1.043172,0.215070,2.929688,-2.380371,-2.014160
0.946088,1.043416,0.191388,3.051758,-2.319336,-2.136230
0.967573,1.050496,0.187726,3.601074,-3.234863,-0.244141
0.967329,1.044637,0.220685,1.342773,-1.037598,0.610352
0.947065,1.061482,0.213361,4.577637,-2.929688,-0.488281
0.974653,1.052205,0.199200,2.990723,-2.563477,-0.427246
0.971479,1.046346,0.189435,1.525879,-0.915527,0.183105
0.973432,1.046101,0.225323,3.784180,-3.051758,-2.319336
0.967573,1.066853,0.198956,2.685547,-1.403809,0.122070
0.968794,1.043416,0.230695,1.708984,-2.197266,-0.793457
0.946577,1.067586,0.221906,2.441406,-1.037598,-0.732422
0.989790,1.049275,0.215070,2.685547,-2.685547,-0.793457
0.953169,1.061726,0.211163,2.807617,-0.061035,-1.892090
0.976850,1.064900,0.200665,3.356934,-1.281738,-1.342773
0.982954,1.068807,0.196515,4.028320,-1.892090,-2.075195
0.943647,1.047322,0.224591,1.953125,-1.708984,-1.281738
0.948530,1.060994,0.176495,2.929688,-2.441406,-0.488281
0.949751,1.044637,0.235333,2.868652,-1.403809,-0.671387
0.960981,1.042928,0.259259,2.502441,-3.845215,-0.732422
0.973676,1.065877,0.209454,3.417969,-2.258301,-0.671387
0.944624,1.051717,0.203351,2.746582,-3.112793,0.671387
0.983198,1.053426,0.226544,1.525879,-1.342773,-0.122070
0.951948,1.059773,0.233624,2.258301,-2.380371,-1.342773
0.972700,1.055135,0.214581,2.685547,-2.136230,-0.305176
0.950971,1.057820,0.217511,3.784180,-1.770020,-0.366211
0.961958,1.063924,0.195050,1.953125,-0.854492,0.854492
0.937055,1.077596,0.196515,3.173828,-2.685547,1.953125
0.910200,1.056844,0.215802,3.845215,1.281738,6.469727
0.857465,1.050740,0.192609,-0.732422,-6.042480,9.826660
0.792768,1.033894,0.163068,0.915527,-7.507324,20.812988
0.748579,1.008504,0.170392,-2.136230,-13.183594,33.386230
0.723188,0.944783,0.166730,0.000000,-15.441895,53.222656
0.788618,0.852010,0.169659,4.699707,4.150391,71.289062
0.757368,0.774129,0.179181,7.812500,2.136230,89.538574
0.655317,0.786336,0.175031,5.920410,9.643555,118.652344
0.645307,0.605428,0.111066,-4.394531,-5.981445,138.610840
0.765180,0.413533,0.098370,5.065918,68.420410,156.127930
0.673628,0.339314,0.262921,-19.836426,18.371582,171.569824
0.710493,0.168660,0.178693,-33.874512,36.132812,166.931152
0.691694,0.040974,0.236554,-23.559570,8.483887,188.598633
0.553022,-0.016154,0.346417,-34.484863,28.259277,169.860840
0.555952,-0.097209,0.258282,-28.869629,-11.352539,177.368164
0.500776,-0.167033,0.270734,-11.718750,13.366699,159.912109
0.470258,-0.174113,0.299298,-13.183594,12.268066,126.770020
0.255415,-0.033244,0.258038,-9.460449,-4.272461,93.139648
0.248090,-0.044231,0.205548,-11.779785,-6.286621,88.867188
0.224409,-0.066203,0.217511,-9.826660,29.174805,68.908691
0.210493,-0.026408,0.277814,-0.610352,10.253906,42.907715
0.180463,-0.016643,0.190900,2.197266,-6.042480,24.108887
0.086225,0.010701,0.150128,1.098633,2.685547,18.859863
0.034956,0.030232,0.244855,7.812500,4.028320,-3.417969
-0.005328,0.016316,0.160138,7.019043,-3.662109,-5.981445
-0.013872,0.008016,0.215070,6.530762,-0.915527,-6.286621
-0.072222,0.019002,0.221417,9.887695,-6.408691,-4.638672
-0.086138,0.039754,0.127667,9.094238,-8.300781,-4.394531
-0.085650,0.039998,0.162335,5.554199,-5.004883,0.183105
-0.055376,0.029012,0.101056,5.432129,2.136230,-2.990723
-0.054400,0.018758,0.155499,5.249023,-7.446289,2.624512
-0.066119,0.030476,0.157941,3.234863,3.112793,-0.732422
0.055952,0.006551,0.176740,5.249023,7.202148,-6.469727
-0.003619,0.017293,0.141339,0.976562,-6.530762,1.708984
0.015424,0.024373,0.205060,3.967285,1.647949,-13.000488
0.025678,0.003865,0.206036,0.976562,-0.427246,-5.432129
0.003462,0.005818,0.218976,0.976562,-3.356934,-11.291504
0.031538,0.042439,0.201398,8.178711,6.835938,-21.118164
0.066938,0.013875,0.226056,6.347656,0.915527,-25.634766
0.148481,0.002889,0.170636,6.958008,-4.638672,-26.489258
0.268598,-0.049113,0.314435,14.099121,26.123047,-59.814453
0.285444,-0.029826,0.287091,18.005371,-13.122559,-67.871094
0.379438,-0.063029,0.297589,25.329590,-21.606445,-93.750000
0.382612,-0.044231,0.297589,28.320312,-7.019043,-113.159180
0.366987,-0.002971,0.315167,27.770996,-20.019531,-114.868164
0.453901,0.014851,0.361554,27.465820,-29.174805,-123.474121
0.485151,0.057576,0.349591,30.944824,-29.479980,-125.427246
0.551069,0.117635,0.360577,34.179688,-32.470703,-127.319336
0.670454,0.097371,0.395001,36.560059,-34.484863,-126.159668
0.751020,0.129842,0.384015,38.940430,-46.264648,-135.009766
0.763960,0.244344,0.322491,34.240723,-47.180176,-141.723633
0.864790,0.314412,0.442609,40.527344,-35.278320,-156.311035
0.828413,0.443562,0.291241,39.489746,-51.879883,-148.803711
0.691450,0.668416,0.187726,43.151855,-23.559570,-138.183594
0.621626,0.826131,0.139630,26.489258,-32.104492,-112.487793
0.585737,0.956258,0.137433,19.165039,-29.357910,-91.918945
0.617231,1.016805,0.153058,14.648438,-17.211914,-65.795898
0.667280,1.066609,0.163556,8.056641,-34.240723,-33.325195
0.664838,1.089558,0.080060,9.521484,-7.690430,-12.695312
0.693891,1.061482,0.104230,-2.441406,-26.977539,26.123047
0.915327,0.984822,0.234601,-0.976562,48.095703,20.080566
0.861860,0.981892,0.168195,-3.479004,-14.770508,43.945312
0.721723,0.988240,0.125470,-7.629395,12.207031,44.006348
0.896040,0.863240,0.157452,-16.906738,6.530762,64.086914
0.789350,0.889607,0.254865,-6.835938,24.291992,73.181152
0.815473,0.802693,0.198956,-11.779785,25.878906,78.979492
0.809370,0.706990,0.202863,-4.394531,27.832031,96.618652
0.725385,0.655476,0.234845,-17.883301,26.184082,107.604980
0.729780,0.458211,0.186017,-18.310547,-17.211914,136.108398
0.733930,0.367879,0.277325,-19.470215,72.204590,119.567871
0.688276,0.278035,0.267316,-18.249512,-6.347656,148.498535
0.635542,0.186238,0.284406,-16.845703,56.579590,130.920410
0.605268,0.092976,0.286115,-29.663086,-9.033203,139.648438
0.537397,0.028523,0.296124,-24.658203,23.559570,135.009766
0.531049,-0.059123,0.284161,-29.113770,22.949219,135.620117
0.512251,-0.090373,0.304669,-28.503418,34.423828,121.704102
0.469526,-0.078166,0.339825,-18.798828,44.799805,96.923828
0.445112,-0.037883,0.330548,-13.610840,29.785156,70.739746
0.278608,0.027547,0.276837,-5.004883,20.996094,61.035156
0.240766,0.032430,0.186749,-7.995605,8.300781,59.875488
0.186079,0.032185,0.229718,-7.507324,17.028809,45.043945
0.182905,0.009969,0.248029,-3.173828,7.263184,43.090820
0.132612,-0.008342,0.210431,3.295898,15.502930,15.502930
0.070600,0.050008,0.189435,3.051758,31.677246,8.117676
0.176801,0.012166,0.236066,1.708984,4.516602,-0.671387
0.113813,0.020223,0.209698,7.568359,-0.976562,-12.329102
0.254438,-0.013713,0.242657,7.385254,-2.685547,-28.930664
0.340620,-0.047160,0.351544,14.892578,-6.958008,-57.006836
0.385542,-0.063518,0.378644,22.216797,-8.605957,-90.515137
0.398969,-0.075481,0.386212,28.137207,-27.770996,-114.074707
0.469282,-0.079875,0.345197,35.156250,-18.493652,-136.474609
0.548383,-0.063029,0.392560,37.597656,-27.526855,-148.437500
0.615034,-0.019084,0.369122,47.241211,-17.150879,-164.550781
0.584272,0.061726,0.396710,48.461914,-45.227051,-165.283203
0.611372,0.156453,0.388654,52.307129,-48.034668,-164.001465
0.634565,0.273396,0.344952,50.170898,-39.245605,-152.038574
0.661421,0.371785,0.318341,45.288086,-37.719727,-135.559082
0.718061,0.467976,0.324445,36.560059,-56.701660,-117.370605
0.783735,0.580525,0.306134,37.109375,-37.353516,-111.267090
0.773969,0.716756,0.284406,40.588379,-26.550293,-110.107422
0.848432,0.771199,0.311017,32.470703,-23.559570,-89.904785
0.706831,0.902791,0.199445,32.104492,-41.870117,-81.298828
0.739301,0.956746,0.190411,17.089844,-49.316406,-62.500000
0.648481,1.062947,0.122540,17.395020,-19.470215,-51.879883
0.741499,1.053426,0.155255,12.084961,-21.850586,-28.320312
0.692182,1.114949,0.085187,6.713867,-6.591797,-13.732910
0.688032,1.129842,0.146954,-7.873535,-8.422852,8.178711
0.827680,1.059529,0.205792,-7.873535,4.699707,28.503418
0.816450,1.067342,0.264874,-6.896973,16.540527,31.127930
0.838178,1.003865,0.165997,-9.948730,6.042480,42.846680
0.832319,0.956014,0.176984,-12.573242,-3.723145,61.157227
0.883344,0.893269,0.234113,-9.094238,34.912109,56.823730
0.741255,0.881307,0.151349,-18.432617,-9.155273,86.608887
0.770796,0.802205,0.234601,-21.667480,32.470703,80.627441
0.794233,0.660603,0.234357,-17.150879,10.559082,117.858887
0.699995,0.597127,0.197247,-24.414062,38.024902,120.483398
0.783491,0.434285,0.263165,-25.512695,-7.080078,138.305664
0.679243,0.336873,0.318585,-16.479492,58.044434,132.934570
0.611616,0.289998,0.260968,-39.794922,-26.916504,149.108887
0.454389,0.179646,0.278058,-24.963379,12.756348,150.207520
0.523725,0.003133,0.215802,-28.564453,26.000977,150.268555
0.546674,-0.119182,0.354474,-32.592773,-13.366699,157.226562
0.503706,-0.134074,0.279523,-16.723633,19.531250,147.644043
0.507124,-0.136516,0.208234,-14.953613,25.085449,122.009277
0.450483,-0.057902,0.241437,-5.798340,51.513672,85.937500
0.323774,-0.024943,0.251202,-6.835938,29.235840,70.434570
0.281538,0.005086,0.237042,-1.525879,14.404297,55.786133
0.216840,0.003133,0.224103,-3.417969,9.765625,41.564941
0.211469,-0.008586,0.208234,2.502441,18.615723,32.226562
0.256391,-0.011272,0.270245,-1.770020,11.535645,22.033691
0.349165,-0.028361,0.280499,4.577637,1.831055,-9.765625
0.556928,-0.119670,0.321515,16.540527,-0.122070,-65.246582
0.589155,-0.174846,0.366925,24.658203,1.892090,-130.554199
0.546674,-0.223918,0.419904,33.630371,-21.240234,-168.334961
0.543989,-0.132365,0.396710,44.189453,-38.085938,-195.861816
0.601850,-0.116252,0.392804,48.095703,-33.691406,-199.523926
0.601118,-0.024455,0.361066,46.142578,-40.832520,-198.303223
0.576948,0.107625,0.354962,54.138184,-38.330078,-185.546875
0.471479,0.340535,0.283917,48.034668,-56.518555,-152.648926
0.661176,0.370076,0.224835,46.813965,-57.739258,-132.507324
0.694135,0.516072,0.269025,26.062012,-62.011719,-112.304688
0.842573,0.550984,0.232892,44.067383,-22.277832,-117.858887
0.723676,0.696004,0.246075,26.245117,-28.564453,-94.665527
0.771772,0.783406,0.157941,24.719238,2.380371,-88.073730
0.679487,0.916951,0.181622,21.179199,-24.169922,-73.120117
0.654585,0.985555,0.091534,-1.647949,-20.202637,-45.288086
0.673139,1.034871,0.089337,9.826660,-6.347656,-37.475586
0.720747,1.099568,0.148663,-5.004883,-29.968262,-22.460938
0.751753,1.081502,0.134015,-0.366211,-6.225586,-7.141113
0.721479,1.108113,0.144025,-12.634277,-31.188965,22.033691
0.795942,1.070760,0.120587,7.507324,44.799805,13.977051
0.705366,1.056844,0.123517,-9.704590,-1.892090,44.738770
0.916547,0.889607,0.245099,-10.864258,22.949219,52.734375
0.869672,0.867146,0.156720,-6.103516,14.648438,66.650391
0.661421,0.862996,0.208234,-19.958496,2.929688,83.312988
0.755171,0.698933,0.200909,-7.019043,77.270508,99.304199
0.566450,0.672078,0.223859,-32.287598,-39.428711,150.329590
0.689741,0.405476,0.041486,-10.925293,46.325684,158.691406
0.442915,0.335652,0.249493,-43.640137,-40.832520,189.270020
0.636762,0.027791,0.333722,-26.123047,62.500000,174.987793
0.526167,-0.069377,0.275128,-16.357422,-2.380371,200.378418
0.434370,-0.187785,0.359357,-27.465820,34.545898,181.213379
0.501997,-0.262981,0.271222,-22.888184,29.907227,183.227539
0.482465,-0.289836,0.312238,-18.676758,45.715332,167.724609
0.554975,-0.225871,0.393048,-10.742188,63.415527,118.774414
0.547895,-0.114055,0.328839,-3.845215,45.166016,66.345215
0.328657,0.004598,0.335919,1.464844,47.851562,18.920898
0.275678,0.063435,0.247540,5.554199,12.817383,19.531250
0.349165,0.001668,0.296124,2.807617,19.653320,-2.624512
0.452680,-0.044475,0.377423,12.695312,1.403809,-34.240723
0.578413,-0.133342,0.369366,20.812988,-8.789062,-84.106445
0.550337,-0.170940,0.410138,30.761719,-12.878418,-142.150879
0.584516,-0.201701,0.446271,37.658691,-35.156250,-168.395996
0.607221,-0.124065,0.429913,47.851562,-54.138184,-187.194824
0.585005,-0.016887,0.383282,48.278809,-54.260254,-191.589355
0.683393,0.027547,0.343976,44.921875,-68.359375,-201.049805
0.653364,0.167683,0.339337,47.363281,-56.274414,-195.678711
0.630903,0.300984,0.299298,47.302246,-62.133789,-180.297852
0.629682,0.433064,0.269757,41.748047,-40.039062,-161.926270
0.638715,0.569539,0.247784,37.536621,-74.829102,-137.451172
0.576215,0.761189,0.155499,23.254395,-29.479980,-109.619141
0.647749,0.811971,0.176495,25.695801,-31.982422,-100.036621
0.545942,0.956502,0.114484,16.479492,-13.610840,-66.101074
0.544477,1.055867,0.065411,10.070801,-35.400391,-50.354004
0.668501,1.048299,0.130841,11.718750,-4.211426,-20.568848
0.782758,1.071980,0.169415,-14.709473,-49.377441,11.047363
0.845747,1.046101,0.126691,2.685547,37.719727,5.615234
0.967329,1.036336,0.157941,-6.286621,-9.704590,22.705078
1.009565,1.049764,0.209943,4.394531,25.939941,15.197754
0.937788,1.030965,0.119122,-0.488281,4.455566,21.362305
0.954389,1.024129,0.230206,-0.366211,8.911133,18.249512
0.988569,0.974080,0.152325,-0.122070,5.126953,13.061523
0.902631,0.980428,0.164532,-0.793457,1.342773,20.446777
0.967573,0.933064,0.226300,-3.967285,26.733398,20.324707
0.887251,0.914998,0.223126,-3.723145,-0.244141,27.343750
0.710493,0.947469,0.133038,-5.798340,29.785156,48.400879
0.535444,0.886433,0.125470,-25.207520,-16.540527,91.491699
0.419721,0.752889,0.113507,-21.179199,20.751953,135.559082
0.441694,0.567586,0.222394,-40.771484,15.563965,158.630371
0.480756,0.325887,0.290509,-18.676758,57.312012,183.044434
0.466108,0.097371,0.284650,-34.667969,13.183594,224.121094
0.502973,-0.086223,0.362775,-36.437988,60.668945,213.745117
0.455854,-0.257121,0.324689,-24.597168,57.495117,230.407715
0.372114,-0.412395,0.344708,-44.006348,52.795410,226.501465
0.447797,-0.441447,0.402814,-29.602051,92.163086,192.687988
0.531294,-0.293742,0.447736,-16.357422,77.880859,136.352539
0.470014,-0.150432,0.386456,-10.253906,50.842285,64.697266
0.287885,-0.015178,0.294415,5.126953,28.747559,29.479980
0.185346,0.033650,0.245587,0.671387,29.296875,10.437012
0.193403,0.046590,0.310773,1.770020,12.207031,5.615234
0.188276,0.008992,0.277325,2.929688,-7.202148,-4.455566
0.114790,0.023641,0.269513,9.765625,1.220703,-25.512695
0.177046,-0.034709,0.324200,9.643555,-13.732910,-36.193848
0.296186,-0.093791,0.347394,17.272949,-13.183594,-66.162109
0.320356,-0.111858,0.348370,25.268555,-24.963379,-101.440430
0.332563,-0.086955,0.330304,30.578613,-48.645020,-120.117188
0.406294,-0.115764,0.365704,33.813477,-39.550781,-143.859863
0.484663,-0.110149,0.410870,41.076660,-45.532227,-158.996582
0.584272,-0.079631,0.456281,44.311523,-44.921875,-172.973633
0.701460,-0.044963,0.418683,53.039551,-49.316406,-183.776855
0.710493,0.055623,0.414044,51.147461,-69.519043,-191.345215
0.678022,0.203572,0.372540,54.748535,-43.823242,-192.626953
0.687299,0.370076,0.269757,45.349121,-75.805664,-175.781250
0.542768,0.586873,0.194806,41.015625,-57.006836,-130.249023
0.615522,0.691121,0.195782,41.687012,-32.043457,-127.807617
0.555952,0.838338,0.182599,12.878418,-42.419434,-83.374023
0.598921,0.912312,0.104474,7.324219,-43.334961,-73.852539
0.658735,0.983113,0.148907,-4.394531,-28.503418,-46.752930
0.743940,0.993367,0.149152,4.943848,-16.113281,-24.047852
0.791792,1.047810,0.130109,6.347656,4.150391,-15.869141
0.865522,1.036092,0.180890,-6.774902,-9.643555,0.061035
0.881391,1.032185,0.171857,2.197266,13.671875,6.774902
0.978803,1.012898,0.202374,-4.089355,7.141113,9.216309
0.983198,1.027058,0.219220,1.464844,0.366211,10.559082
0.876508,1.034383,0.162579,8.666992,14.282227,11.474609
0.689741,1.073201,0.099591,-0.305176,7.324219,24.780273
0.483930,1.071004,0.010968,-0.488281,16.418457,50.109863
0.540571,0.917683,0.175031,-11.535645,71.838379,79.833984
0.793989,0.678426,0.314679,-30.700684,4.150391,112.548828
0.669721,0.597127,0.303204,0.976562,67.504883,115.905762
0.902143,0.448445,0.249493,-10.314941,69.091797,86.975098
0.760542,0.487019,0.508771,-30.517578,13.610840,112.915039
0.678755,0.425008,0.193097,-36.376953,-30.456543,132.446289
0.643842,0.274861,0.322491,-27.832031,76.232910,122.680664
0.561079,0.169392,0.322247,-44.555664,-11.169434,172.058105
0.534956,0.001668,0.352277,-32.897949,54.321289,145.080566
0.496137,-0.080363,0.342267,-34.667969,56.091309,155.212402
0.421919,-0.099895,0.371320,-38.269043,39.245605,152.648926
0.439008,-0.143352,0.353986,-35.339355,41.381836,139.282227
0.464155,-0.108928,0.425031,-20.263672,47.119141,108.398438
0.490034,-0.046916,0.400616,-12.451172,25.024414,72.753906
0.497602,-0.020793,0.354474,4.821777,14.526367,37.902832
0.369428,0.034383,0.341534,4.394531,19.592285,-8.544922
0.206831,0.099080,0.305890,2.929688,2.441406,-15.930176
0.206098,0.052693,0.290021,5.737305,-14.770508,-15.441895
0.213667,0.025349,0.300031,7.812500,-10.742188,-24.230957
0.259565,-0.003459,0.342755,12.512207,-9.033203,-38.574219
0.375532,-0.060832,0.392560,20.019531,-7.751465,-67.565918
0.463422,-0.090373,0.420636,24.475098,-35.339355,-96.984863
0.529829,-0.104045,0.408673,34.973145,-36.682129,-126.403809
0.610883,-0.099895,0.463361,39.489746,-30.151367,-161.621094
0.655073,-0.037395,0.452863,48.889160,-27.954102,-178.955078
0.674116,0.080525,0.461652,50.720215,-60.607910,-174.377441
0.672407,0.189168,0.369366,57.250977,-44.189453,-172.485352
0.709272,0.299519,0.385968,54.687500,-58.654785,-162.414551
0.731245,0.403767,0.350568,51.025391,-50.292969,-156.005859
0.720747,0.537557,0.252667,39.062500,-68.420410,-135.498047
0.699262,0.671834,0.318829,35.156250,-58.227539,-123.413086
0.681440,0.811971,0.193585,31.066895,-48.767090,-110.656738
0.734907,0.871785,0.226056,25.085449,-61.401367,-86.242676
0.573530,1.032674,0.142804,22.155762,-25.756836,-74.279785
0.667280,1.074422,0.134991,4.333496,-51.696777,-46.386719
0.696088,1.087361,0.147443,11.901855,13.916016,-32.043457
0.782270,1.129353,0.131329,-0.183105,-26.794434,-2.868652
0.787641,1.146687,0.087384,5.981445,9.704590,-0.610352
0.853071,1.128133,0.110089,-3.601074,-7.202148,14.343262
0.924116,1.087605,0.163312,-0.732422,15.136719,17.333984
0.920698,1.096883,0.125470,-0.427246,11.230469,23.193359
0.796186,1.071004,0.071027,-3.784180,10.314941,29.663086
0.655805,1.060506,0.089093,-14.221191,13.610840,51.818848
0.555219,0.981892,0.078839,-16.418457,46.569824,65.551758
0.497114,0.865926,0.140851,-21.301270,40.466309,124.450684
0.694380,0.607381,0.353741,-13.549805,64.941406,135.986328
0.673383,0.562947,0.275372,-30.395508,-21.972656,128.112793
0.714399,0.405965,0.419659,-13.854980,136.474609,142.883301
0.641157,0.258016,0.282941,-39.489746,10.498047,199.157715
0.616743,0.050984,0.410138,-41.503906,58.654785,193.115234
0.669233,-0.134807,0.391583,-36.071777,32.470703,208.679199
0.548872,-0.207317,0.418439,-25.268555,85.144043,199.890137
0.501508,-0.209026,0.421857,-31.982422,78.918457,189.758301
0.530561,-0.234660,0.446515,-30.761719,84.533691,151.367188
0.477583,-0.079143,0.489240,-17.272949,69.885254,100.280762
0.344770,-0.027873,0.409894,-9.704590,40.344238,61.645508
0.335005,-0.000285,0.364972,-1.220703,32.287598,30.944824
0.331342,0.027058,0.396466,-0.732422,14.709473,4.577637
0.188276,0.059285,0.359113,6.408691,6.469727,-13.244629
0.219038,0.036824,0.374005,6.958008,-2.929688,-23.925781
0.253217,0.004353,0.391339,12.878418,-15.136719,-47.668457
0.245893,-0.015910,0.358624,17.456055,-25.390625,-66.284180
0.368696,-0.076457,0.426740,23.925781,-34.606934,-91.125488
0.406782,-0.058147,0.419904,29.296875,-44.128418,-117.126465
0.490766,-0.074260,0.460675,40.832520,-43.762207,-140.136719
0.544233,-0.097697,0.465070,45.593262,-40.710449,-161.437988
0.580122,0.001912,0.463361,41.687012,-64.453125,-162.048340
0.655561,0.034139,0.449200,46.936035,-65.368652,-170.593262
0.737104,0.135701,0.442609,48.522949,-43.212891,-182.739258
0.757856,0.245808,0.377423,49.987793,-89.477539,-169.189453
0.739790,0.400105,0.347394,46.264648,-54.687500,-168.395996
0.711469,0.543904,0.330548,42.541504,-55.664062,-158.325195
0.663130,0.728230,0.230695,34.057617,-69.580078,-126.708984
0.568403,0.889851,0.189435,24.047852,-58.776855,-112.915039
0.562544,0.994344,0.109845,31.616211,-25.146484,-75.988770
0.463422,1.132039,0.098615,21.362305,-33.630371,-42.236328
0.646040,1.060506,0.113751,24.963379,18.554688,-19.958496
0.735151,1.107381,0.147443,6.164551,0.183105,2.319336
0.893110,1.038045,0.238995,-3.112793,3.417969,15.563965
0.990766,1.039510,0.287335,0.610352,13.305664,17.700195
0.922651,1.081502,0.195538,-1.098633,3.234863,18.432617
0.755415,1.098592,0.091046,-4.455566,11.718750,26.428223
0.545942,1.054891,0.010480,-22.277832,-5.249023,61.340332
0.582563,0.934529,0.253156,-21.362305,65.063477,68.908691
0.749311,0.824178,0.220441,-23.315430,32.043457,105.224609
0.591596,0.754598,0.342755,-24.414062,25.939941,140.502930
0.743940,0.498494,0.224347,-6.286621,57.312012,181.762695
0.482710,0.423299,0.416241,-46.691895,-2.258301,190.734863
0.755171,0.095906,0.324200,-33.020020,6.774902,215.576172
0.534712,0.005086,0.378888,-30.517578,2.624512,198.913574
0.546919,-0.104777,0.341046,-12.023926,52.490234,189.392090
0.534467,-0.246867,0.397443,-11.291504,84.411621,179.748535
0.437055,-0.201701,0.411603,-23.559570,85.937500,151.367188
0.432905,-0.199260,0.466290,-24.780273,63.415527,125.732422
0.405805,-0.117717,0.425763,-13.427734,54.199219,86.059570
0.317426,-0.023234,0.362531,-1.647949,47.668457,52.551270
0.215620,0.015828,0.299542,1.159668,49.743652,31.860352
0.164838,0.034627,0.407452,-9.155273,41.992188,23.925781
0.199506,0.012898,0.342023,-3.356934,1.464844,14.160156
0.150678,0.040242,0.320538,-0.854492,-5.065918,1.281738
0.146772,0.039266,0.323468,2.014160,-7.385254,-16.906738
0.194868,-0.001750,0.349591,4.150391,-13.854980,-29.296875
0.352338,-0.074748,0.447736,10.742188,-26.000977,-70.129395
0.480756,-0.170695,0.526837,23.071289,-52.490234,-117.553711
0.512495,-0.216350,0.497296,31.066895,-69.885254,-163.635254
0.579389,-0.194133,0.470685,38.879395,-80.993652,-191.101074
0.600385,-0.121623,0.394025,45.654297,-59.326172,-205.810547
0.609663,0.007527,0.407452,51.208496,-70.434570,-208.435059
0.669233,0.110310,0.315656,46.020508,-66.162109,-200.195312
0.615278,0.271443,0.316388,47.180176,-82.763672,-189.331055
0.737837,0.350789,0.363263,42.236328,-58.288574,-180.175781
0.675581,0.551717,0.248761,37.658691,-83.557129,-160.827637
0.731977,0.610066,0.224347,17.639160,-52.429199,-131.835938
0.644087,0.815877,0.122052,28.991699,-50.292969,-119.201660
0.633833,0.939168,0.172833,9.277344,-34.423828,-74.462891
0.582563,1.069295,0.057355,22.094727,-13.427734,-70.617676
0.664838,1.105428,0.101544,1.281738,-19.958496,-36.193848
0.758588,1.139607,0.104962,4.882812,-4.272461,-18.127441
0.753217,1.175008,0.086407,4.272461,-1.220703,0.915527
0.735395,1.182332,0.072247,-2.990723,0.915527,13.854980
0.807905,1.150594,0.113263,-0.488281,24.902344,30.395508
0.818647,1.090291,0.087872,-1.403809,33.752441,44.616699
0.584516,1.116902,0.174054,6.469727,73.486328,65.246582
0.661176,0.953084,0.115948,-4.943848,53.283691,92.285156
0.474165,0.897420,0.102765,-41.870117,-32.897949,146.728516
0.652387,0.657918,0.214581,-22.033691,110.412598,129.211426
0.766645,0.469930,0.325177,-39.489746,13.488770,182.556152
0.657026,0.363973,0.448468,-32.409668,86.303711,146.057129
0.774213,0.148152,0.390607,-34.790039,-11.413574,200.866699
0.654829,0.072224,0.495831,-36.132812,58.654785,144.653320
0.726118,-0.037639,0.316632,-25.390625,28.198242,163.879395
0.553755,-0.029094,0.342511,-38.818359,37.231445,136.352539
0.492963,-0.006389,0.352032,-33.142090,32.287598,138.305664
0.413130,-0.073039,0.382306,-24.414062,28.381348,140.930176
0.482465,-0.129436,0.340558,-7.568359,49.377441,119.079590
0.460005,-0.110149,0.385480,-7.629395,52.734375,88.623047
0.339887,-0.007609,0.349835,-3.845215,45.898438,46.997070
0.305463,0.038777,0.315167,-0.854492,13.610840,35.461426
0.296674,0.007283,0.299298,0.000000,1.525879,22.521973
0.255903,0.006307,0.321759,-0.244141,16.357422,-2.807617
0.227583,0.054891,0.364728,2.868652,-2.441406,-17.028809
0.310346,0.003377,0.313458,7.568359,-15.808105,-36.621094
0.359907,-0.027629,0.378400,15.808105,-3.051758,-74.218750
0.525434,-0.124065,0.447736,21.972656,-35.095215,-100.463867
0.568647,-0.160930,0.481427,29.602051,-43.273926,-141.418457
0.578657,-0.130656,0.456769,39.611816,-48.278809,-175.720215
0.635542,-0.084758,0.473126,40.893555,-65.063477,-190.490723
0.652387,0.013631,0.411115,51.513672,-50.109863,-198.913574
0.643598,0.140096,0.399396,47.119141,-71.899414,-190.612793
0.697065,0.220174,0.320538,50.109863,-56.396484,-188.049316
0.701704,0.387654,0.322003,45.166016,-74.462891,-175.598145
0.678755,0.526570,0.263898,32.409668,-81.115723,-150.695801
0.663374,0.694539,0.128644,30.029297,-41.809082,-140.380859
0.611128,0.849324,0.201398,15.686035,-54.443359,-111.389160
0.656782,0.946980,0.084943,15.014648,-39.611816,-85.021973
0.639204,1.037068,0.130353,6.286621,-19.348145,-65.002441
0.677290,1.117391,0.103741,9.460449,-5.554199,-37.841797
0.752729,1.123738,0.156476,1.220703,-1.708984,-12.756348
0.834516,1.129109,0.152570,-1.953125,5.737305,1.098633
0.931684,1.109334,0.135724,-1.953125,-6.164551,12.268066
0.850385,1.146687,0.138898,-2.319336,5.798340,16.906738
0.925337,1.098348,0.126691,-1.647949,14.648438,23.620605
0.893110,1.092976,0.156232,-2.990723,13.610840,24.291992
0.711958,1.078572,0.044171,-8.056641,-9.155273,45.471191
0.667524,1.010701,0.059064,-12.329102,23.864746,74.890137
0.457563,0.974812,0.089581,-32.714844,2.136230,105.590820
0.543501,0.796590,0.164288,-17.883301,71.166992,125.305176
0.586469,0.560506,0.145978,-28.930664,-22.521973,183.715820
0.549116,0.440877,0.400372,-25.268555,66.040039,169.799805
0.794477,0.104451,0.250470,-32.714844,-36.804199,214.782715
0.512739,0.035115,0.318585,-16.662598,37.292480,217.773438
0.559126,-0.144572,0.288068,-27.526855,27.893066,212.402344
0.546430,-0.301067,0.322491,-11.047363,70.068359,216.125488
0.481001,-0.306682,0.388654,-19.836426,68.054199,208.435059
0.561567,-0.321086,0.381329,-12.145996,59.997559,167.968750
0.577192,-0.204631,0.327863,-7.568359,52.856445,105.590820
0.454633,-0.072551,0.303937,2.929688,45.410156,40.649414
0.309126,0.043904,0.291730,2.929688,13.732910,17.639160
0.279096,0.042928,0.255597,1.220703,6.164551,8.239746
0.281049,-0.003459,0.271222,1.647949,6.469727,-14.770508
0.251264,0.006307,0.364728,7.995605,-12.634277,-36.804199
0.292280,-0.022502,0.262433,12.634277,-25.634766,-57.983398
0.303266,-0.029826,0.308575,14.099121,-27.648926,-81.481934
0.427046,-0.083781,0.326886,15.380859,-39.123535,-105.773926
0.540327,-0.132854,0.367902,26.123047,-39.245605,-133.972168
0.542036,-0.139201,0.393781,23.620605,-46.447754,-158.081055
0.570844,-0.089152,0.315656,33.142090,-40.527344,-174.804688
0.641645,-0.062785,0.378400,30.334473,-44.799805,-178.649902
0.651167,0.037068,0.376202,33.508301,-43.273926,-185.729980
0.720991,0.158162,0.328107,30.761719,-46.508789,-176.025391
0.692182,0.295125,0.300275,32.897949,-52.185059,-176.879883
0.722212,0.430379,0.285626,33.752441,-57.067871,-157.470703
0.843061,0.483846,0.248273,20.202637,-74.890137,-122.924805
0.609174,0.729207,0.094708,39.367676,-9.399414,-143.249512
0.614546,0.865437,0.114484,19.653320,-30.944824,-107.177734
0.526655,1.052449,0.076886,14.953613,-22.033691,-87.646484
0.597456,1.093709,0.000714,-0.427246,-37.048340,-41.076660
0.700239,1.121053,0.091290,4.333496,15.625000,-26.245117
0.824018,1.133748,0.126935,-4.516602,-7.019043,-6.225586
0.899702,1.118123,0.125470,0.305176,16.906738,3.234863
0.925825,1.127644,0.170392,-4.699707,-10.498047,16.113281
0.986860,1.124715,0.176740,3.112793,25.573730,4.028320
1.014204,1.114461,0.124493,-0.427246,-15.136719,10.314941
0.968794,1.097859,0.158429,3.173828,-1.342773,2.136230
0.981245,1.085164,0.139874,-0.915527,-20.263672,9.338379
0.998823,1.068807,0.150616,6.469727,5.249023,2.441406
0.956098,1.069051,0.147443,1.831055,0.488281,1.586914
0.815717,1.084187,0.088116,-0.488281,-2.441406,10.009766
0.901411,1.010213,0.137921,-4.089355,13.305664,14.892578
0.849165,1.004842,0.152081,-5.493164,-3.845215,31.066895
0.528364,1.052937,0.066876,-0.915527,-2.441406,61.462402
0.310590,1.021687,-0.007343,-24.902344,2.990723,92.285156
0.362348,0.871297,0.106183,-15.686035,61.828613,116.699219
0.805219,0.535359,0.351056,-23.193359,50.048828,115.356445
0.959272,0.389607,0.317853,-8.789062,48.400879,103.637695
0.858686,0.316609,0.309552,-31.738281,23.193359,169.982910
1.048872,0.235066,0.488507,-22.460938,114.257812,121.643066
0.874799,0.213338,0.307111,-51.025391,-51.818848,168.029785
0.680463,0.223348,0.302960,-29.174805,24.658203,131.225586
0.639936,0.129842,0.342023,-21.606445,18.737793,133.361816
0.589399,0.061482,0.261456,-19.836426,20.324707,131.652832
0.503217,-0.016643,0.261945,-20.935059,27.587891,124.023438
0.470258,-0.010295,0.345197,-11.291504,27.587891,111.206055
0.399946,-0.023967,0.277814,-6.286621,9.460449,100.402832
0.351850,-0.020793,0.266339,-2.502441,19.714355,86.059570
0.331587,-0.025676,0.306866,-4.333496,21.667480,64.331055
0.277631,0.005330,0.283429,-1.098633,17.272949,50.415039
0.275922,-0.013957,0.264142,-2.746582,11.840820,31.494141
0.188276,0.031941,0.256573,0.793457,17.333984,17.211914
0.175092,0.032185,0.273663,2.807617,4.394531,6.286621
0.122358,0.040242,0.253400,1.525879,-4.272461,2.319336
0.109419,0.028035,0.237531,5.371094,-4.394531,-6.225586
0.032758,0.059285,0.246808,2.990723,-4.211426,-8.239746
0.082807,0.024861,0.225568,3.906250,-8.056641,-7.507324
0.084272,0.029500,0.205060,4.211426,-5.126953,-14.160156
0.034467,0.039021,0.250958,4.089355,-2.502441,-8.789062
0.039106,0.046101,0.212872,5.004883,-6.958008,-6.774902
0.040571,0.036092,0.250958,1.220703,0.122070,-6.591797
0.059614,0.050984,0.209698,2.502441,-4.272461,-3.906250
0.058393,0.054402,0.217511,5.126953,-2.868652,0.366211
0.083540,0.047810,0.247296,4.333496,-1.953125,-0.732422
0.080610,0.034627,0.278546,3.662109,-1.342773,-0.549316
0.084028,0.040974,0.256818,2.746582,2.929688,-1.953125
0.097456,0.041951,0.250470,4.577637,-0.549316,-1.525879
0.086958,0.049519,0.212384,2.929688,1.464844,-2.746582
0.087202,0.036092,0.240704,2.929688,1.098633,-1.342773
0.089643,0.037068,0.274640,1.159668,-0.549316,-2.258301
0.091596,0.043172,0.228009,4.211426,-2.075195,0.183105
0.109419,0.047322,0.197980,2.380371,-1.464844,-2.136230
0.104292,0.030965,0.219220,2.807617,-1.892090,-1.342773
0.097212,0.044881,0.259747,3.173828,-3.173828,-0.671387
0.102338,0.043660,0.226300,0.854492,-2.624512,-0.793457
0.086225,0.036336,0.218243,0.000000,-0.122070,0.061035
0.102583,0.037068,0.237775,4.150391,-0.488281,-1.586914
0.091840,0.039510,0.230206,1.770020,-3.295898,-1.586914
0.085249,0.043172,0.249493,1.770020,-2.868652,-1.098633
0.095014,0.037068,0.261945,1.953125,-2.685547,-0.854492
0.084272,0.042195,0.230695,2.990723,-2.319336,-0.366211
0.086225,0.038045,0.214581,-0.366211,0.488281,-1.831055
0.079878,0.047322,0.270490,2.319336,-2.929688,-0.183105
0.090864,0.050496,0.229718,1.831055,-2.807617,0.244141
0.092817,0.038289,0.241437,3.479004,-0.610352,-0.732422
0.089155,0.038777,0.221661,1.892090,0.244141,-0.610352
0.102827,0.043904,0.233136,1.281738,0.305176,-1.525879
0.091596,0.031941,0.246075,2.746582,-1.953125,-2.136230
0.091840,0.030965,0.223859,0.976562,0.366211,-2.380371
0.102583,0.034871,0.226544,0.366211,-1.586914,-1.464844
0.079389,0.046101,0.247540,2.868652,-2.197266,-0.305176
0.090620,0.039510,0.241437,2.380371,-3.906250,-1.281738
0.088911,0.052937,0.227032,2.014160,-1.831055,-0.488281
0.099897,0.059529,0.248273,1.342773,-4.089355,-1.098633
0.099653,0.036336,0.235577,0.000000,-0.610352,-0.610352
0.087690,0.034871,0.244855,1.831055,-1.892090,-1.464844
0.095991,0.048299,0.237286,1.403809,-2.380371,2.380371
0.093794,0.041463,0.227277,0.610352,-2.319336,1.037598
0.087934,0.033162,0.265851,1.464844,-2.624512,0.610352
0.106001,0.043904,0.232159,2.075195,-3.234863,0.244141
0.088911,0.027791,0.248517,1.831055,-0.915527,0.671387
0.100874,0.044637,0.238751,0.061035,0.793457,-1.403809
0.091108,0.022664,0.269513,2.502441,-2.807617,-0.671387
0.087446,0.059773,0.235333,1.220703,1.159668,-2.136230
0.096479,0.022420,0.238751,3.356934,-3.417969,-0.305176
0.090376,0.029500,0.260236,1.831055,0.244141,-1.464844
0.101850,0.044637,0.248517,2.624512,-4.699707,-0.244141
0.089155,0.040974,0.231427,3.417969,0.305176,-0.732422
0.090376,0.028523,0.240460,4.028320,-0.976562,-1.586914
0.092573,0.030476,0.209210,3.784180,-2.929688,-0.915527
0.095258,0.030476,0.245587,2.380371,1.525879,-1.220703
0.103559,0.034139,0.250226,4.150391,2.014160,-2.685547
0.097456,0.028279,0.249982,3.906250,-0.671387,-2.197266
0.087934,0.049764,0.239972,4.760742,1.403809,-2.746582
0.089887,0.046101,0.218488,3.417969,-2.685547,-2.319336
0.093061,0.052449,0.222638,2.258301,0.854492,-2.685547
0.106001,0.059041,0.253888,1.831055,0.366211,-2.502441
0.108198,0.021687,0.236798,2.807617,-2.990723,-0.183105
0.078657,0.043172,0.234357,1.037598,-2.258301,-0.183105
0.106001,0.041707,0.252667,2.197266,-1.525879,0.000000
0.103559,0.052937,0.217511,3.295898,-2.380371,-1.098633
0.022993,-0.000285,0.229962,-1.220703,6.164551,5.859375
0.195600,-0.015910,0.270734,0.000000,0.061035,-0.854492
0.130903,0.060750,0.213116,-1.464844,-1.831055,-9.765625
0.119917,0.055379,0.197247,-2.380371,-1.586914,-2.136230
0.080854,0.044392,0.253156,-3.479004,-6.958008,0.915527
0.134321,0.028523,0.191876,-0.366211,-5.859375,-0.976562
0.086713,0.030232,0.216534,-2.258301,-5.371094,-1.708984
0.084516,0.040730,0.235577,3.967285,-2.807617,1.342773
0.092817,0.037068,0.193341,-0.061035,-4.638672,-1.403809
0.115766,0.043660,0.257306,1.464844,-6.225586,3.234863
0.107465,0.042683,0.240948,2.319336,-2.990723,-0.976562
0.111372,0.051717,0.232404,4.760742,-3.723145,0.183105
0.121870,0.029012,0.182843,0.793457,-1.770020,-3.479004
0.067915,0.046590,0.230206,1.770020,-3.540039,0.244141
0.110639,0.028523,0.192365,2.319336,-1.098633,-3.051758
0.085005,0.032918,0.193829,4.455566,-6.713867,0.976562
0.097212,0.022664,0.210431,4.516602,-2.380371,1.464844
0.113325,0.051961,0.231183,1.831055,-0.549316,-2.197266
0.107710,0.034139,0.192120,5.554199,-6.286621,1.831055
0.163374,0.047078,0.270978,4.821777,-0.244141,-6.713867
-0.012652,0.044392,0.132062,8.728027,5.187988,-1.647949
0.111372,0.044881,0.271466,12.329102,4.943848,2.258301
0.106001,0.039998,0.208234,6.713867,-6.774902,-0.244141
0.101362,0.063191,0.246808,3.601074,-0.183105,-1.403809
0.096723,0.058308,0.295636,-1.220703,-14.282227,3.417969
