ax,ay,az,gx,gy,gz
-0.118228,0.029285,0.143567,-0.854492,-0.915527,-1.403809
-0.114566,0.044910,0.141369,-3.234863,1.831055,-1.281738
-0.132388,0.029529,0.160901,-1.342773,-1.464844,-0.915527
-0.115054,0.027332,0.148450,0.915527,-1.403809,-0.244141
-0.131655,0.031238,0.131360,-1.037598,-1.342773,-0.915527
-0.143374,0.029529,0.129162,-1.281738,-0.122070,-1.220703
-0.131411,0.021473,0.153332,-2.746582,0.610352,1.098633
-0.113833,0.031483,0.157239,0.305176,-3.662109,-1.953125
-0.119693,0.040272,0.155774,1.464844,-4.394531,-2.136230
-0.144107,0.030506,0.151135,-1.770020,-0.793457,-1.464844
-0.111392,0.039051,0.163586,0.427246,0.183105,-1.098633
-0.116275,0.020985,0.127209,-2.380371,-0.610352,-3.234863
-0.137271,0.040027,0.134778,2.014160,-2.807617,-3.234863
-0.121402,0.012684,0.126721,-2.197266,-1.098633,-1.342773
-0.132144,0.026356,0.136242,0.427246,-3.723145,-2.075195
-0.104312,0.031971,0.125500,-1.281738,-1.525879,-1.586914
-0.136050,0.034412,0.150891,-1.831055,-3.234863,0.183105
-0.094302,0.031238,0.136487,-1.403809,-2.563477,-1.159668
-0.122378,0.019276,0.161877,0.793457,-7.202148,-3.906250
-0.134341,0.029774,0.126477,-1.220703,-2.380371,-4.211426
-0.111392,0.015858,0.155774,0.488281,-3.112793,-1.281738
-0.125552,0.018299,0.139172,-0.854492,-1.586914,-1.586914
-0.129702,0.020252,0.165539,0.671387,-1.281738,-3.112793
-0.146304,0.016346,0.130871,-1.220703,-1.342773,-0.549316
-0.132876,0.026111,0.143567,-1.953125,1.464844,-0.549316
-0.111392,0.029529,0.138196,0.183105,-0.305176,-0.244141
-0.116030,0.018543,0.142102,1.281738,-2.624512,-0.793457
-0.099429,0.027820,0.199231,-1.159668,1.159668,-1.586914
-0.100650,0.027820,0.163098,-0.549316,1.281738,-3.295898
-0.130435,0.029774,0.169934,1.647949,-3.479004,-1.647949
-0.133120,0.033680,0.154309,3.479004,13.549805,-9.460449
-0.118228,0.031238,0.139660,1.525879,0.915527,0.305176
-0.119937,0.011707,0.126965,-1.159668,-6.164551,-4.333496
-0.118228,0.018299,0.167737,3.295898,-10.437012,2.990723
-0.102114,0.007557,0.114758,-0.061035,-5.981445,-1.464844
-0.103823,0.039783,0.163098,-1.525879,-4.699707,-1.342773
-0.157046,0.043445,0.162121,-0.793457,-4.089355,-2.685547
-0.137515,0.028065,0.156506,-2.258301,-2.075195,-1.159668
-0.131655,0.027576,0.153088,-0.732422,-5.249023,1.586914
-0.113345,0.014881,0.167004,-0.122070,-0.427246,-1.708984
-0.117251,0.010975,0.160901,0.061035,-1.586914,-0.366211
-0.110171,0.040027,0.125744,-0.427246,0.732422,-1.037598
-0.113345,0.034656,0.162610,-2.136230,-1.708984,-1.037598
-0.103579,0.028553,0.174084,-0.610352,-2.868652,-0.305176
-0.128237,0.019031,0.146985,-1.342773,-2.014160,-1.159668
-0.123843,0.031238,0.149914,-0.488281,-2.136230,0.061035
-0.123599,0.038563,0.160657,-3.662109,-0.305176,-0.976562
-0.098696,0.038319,0.149426,0.549316,-0.305176,-0.671387
-0.105044,0.036365,0.161145,-0.854492,-0.122070,-2.136230
-0.126284,0.030506,0.174573,-0.732422,-2.990723,-0.244141
-0.114566,0.033924,0.163586,-0.793457,-1.220703,-2.075195
-0.108950,0.004627,0.140393,1.464844,-2.624512,-2.197266
-0.128482,0.022205,0.141369,-0.061035,-0.549316,-1.464844
-0.128726,0.025867,0.182873,0.244141,-4.516602,-0.610352
-0.111392,0.035145,0.135022,-0.305176,-0.793457,-1.342773
-0.118716,0.038563,0.127209,1.220703,-4.333496,0.427246
-0.146060,0.027576,0.156506,-1.525879,0.427246,-3.540039
-0.121402,0.023182,0.163342,0.793457,-2.746582,1.037598
-0.105532,0.023426,0.151623,-2.929688,0.915527,-1.770020
-0.126040,0.036365,0.162121,-0.854492,-1.220703,-3.540039
-0.132388,0.042957,0.134534,-0.244141,-3.906250,-0.305176
-0.106509,0.019764,0.158703,-0.854492,-1.464844,-1.647949
-0.108218,0.017078,0.161633,0.305176,-3.967285,-1.220703
-0.127993,0.022449,0.164319,-1.403809,0.000000,-1.281738
-0.119448,0.030506,0.153576,0.305176,-3.356934,0.305176
-0.127505,0.043445,0.193860,0.000000,-2.319336,-1.281738
-0.129458,0.023914,0.167004,-1.281738,-1.647949,-1.464844
-0.135073,0.008533,0.195080,-0.549316,-2.868652,-1.342773
-0.119693,0.046131,0.154065,-0.793457,-2.014160,-1.220703
-0.129702,0.020008,0.154065,-0.549316,-2.807617,-1.464844
-0.123355,0.038319,0.174817,0.488281,-2.563477,-0.854492
-0.126284,0.020496,0.127698,-0.061035,-1.220703,-1.708984
-0.128970,0.021717,0.139416,-0.732422,-1.281738,-1.342773
-0.133853,0.020985,0.164563,-1.953125,0.244141,-0.732422
-0.110659,0.022449,0.165051,-2.441406,-0.366211,-0.305176
-0.139956,0.022449,0.152356,-0.854492,-1.403809,-1.342773
-0.105532,0.029285,0.146496,-0.122070,-2.075195,-1.953125
-0.134341,0.030018,0.157727,-1.586914,-2.319336,-2.258301
-0.131167,0.037586,0.184338,-0.610352,-0.488281,-2.807617
-0.136294,0.024891,0.152600,-2.136230,-1.403809,-0.671387
-0.153384,0.034412,0.157727,-0.366211,-0.732422,0.610352
-0.100161,0.024402,0.164319,-0.305176,0.000000,-0.854492
-0.120913,0.052479,0.157483,0.122070,-2.197266,-0.671387
-0.124575,0.033192,0.169201,0.366211,-2.197266,-1.220703
-0.125308,0.014881,0.140149,-0.061035,-1.892090,-1.220703
-0.131167,0.036854,0.136242,-0.244141,-2.197266,-3.112793
-0.125064,0.027088,0.166028,1.342773,-3.479004,-1.403809
-0.142398,0.013660,0.136242,-0.793457,-2.990723,-1.831055
-0.132876,0.018787,0.159924,0.488281,-1.098633,-2.075195
-0.136538,0.042225,0.130139,-1.647949,-0.671387,-1.098633
-0.144351,0.030506,0.169934,0.244141,-0.671387,-1.220703
-0.115298,0.036365,0.164075,0.061035,-2.441406,1.159668
-0.118472,0.025379,0.155041,-0.061035,-2.075195,0.854492
-0.113589,0.027088,0.181897,-1.831055,0.183105,-1.892090
-0.123599,0.030506,0.170666,-0.854492,-2.136230,-0.549316
-0.138736,0.040272,0.127453,-0.854492,-0.183105,-2.441406
-0.124575,0.027332,0.154309,-0.244141,-1.342773,-1.892090
-0.149234,0.012195,0.153332,-1.281738,1.098633,-2.624512
-0.138980,0.015125,0.179455,0.000000,-0.366211,0.976562
-0.118228,0.028309,0.145764,0.244141,-0.122070,-0.732422
-0.140689,0.026844,0.141858,0.122070,-0.915527,-0.732422
-0.150210,0.026356,0.151379,-1.281738,0.671387,-0.732422
-0.131655,0.017078,0.178723,-0.793457,-0.671387,0.000000
-0.122622,0.026356,0.133801,-0.854492,-1.403809,0.427246
-0.146060,0.007069,0.153821,-0.793457,-0.488281,-1.037598
-0.124820,0.023670,0.161145,-1.159668,-1.159668,-1.098633
-0.121157,0.017811,0.167737,-0.366211,-2.990723,-0.244141
-0.162417,0.011951,0.142834,-0.610352,-0.366211,-1.770020
-0.110171,0.014881,0.153576,-0.183105,-0.793457,-0.671387
-0.146060,0.047840,0.157971,-0.671387,0.244141,-1.159668
-0.169986,0.035877,0.168713,-0.122070,-3.295898,0.488281
-0.119204,0.022938,0.132580,1.098633,-1.831055,-0.061035
-0.157534,0.025623,0.176037,-1.098633,-2.258301,-1.037598
-0.106753,-0.000500,0.153332,0.305176,-1.525879,-2.136230
-0.113101,0.023914,0.141125,-1.342773,-1.220703,-1.342773
-0.152407,0.011463,0.157727,-1.647949,-5.187988,-2.014160
-0.118228,0.027088,0.158215,-2.136230,1.586914,-3.356934
-0.129458,0.044422,0.158459,-1.464844,-2.990723,-1.403809
-0.160952,0.020740,0.156506,-2.319336,-2.990723,-1.159668
-0.101870,0.037586,0.150647,-1.464844,-1.647949,0.061035
-0.149234,0.041248,0.178967,-1.403809,-2.075195,-2.014160
-0.158023,0.021961,0.167004,-1.342773,-0.305176,-1.403809
-0.113345,0.049061,0.145520,-1.098633,-6.042480,1.708984
-0.116030,0.022205,0.148450,-1.159668,0.000000,-1.098633
-0.130679,0.017567,0.170178,0.000000,-3.967285,0.000000
-0.120425,0.025867,0.167737,-0.793457,-0.732422,-3.234863
-0.155337,0.037098,0.155530,-1.708984,-1.708984,-1.281738
-0.158511,0.021961,0.128186,-2.441406,-2.563477,-0.915527
-0.162173,0.030506,0.158703,-1.098633,-1.281738,-2.258301
-0.128237,0.019276,0.148205,-1.647949,-0.549316,-1.159668
-0.111392,0.062244,0.161389,-1.770020,-1.831055,-1.953125
-0.143374,0.042957,0.165539,-0.122070,0.000000,-3.479004
-0.111636,0.027088,0.169201,-0.671387,-1.464844,-1.220703
-0.140689,0.030262,0.161877,-0.671387,-1.708984,-1.525879
-0.135318,0.034168,0.151379,0.122070,0.793457,-3.601074
-0.140445,0.020008,0.167004,0.305176,-1.892090,-1.098633
-0.125796,0.016834,0.119641,-0.488281,-2.441406,-0.366211
-0.142642,0.029529,0.179211,0.549316,-1.464844,-1.586914
-0.147769,0.022449,0.163586,0.915527,-1.953125,-1.403809
-0.129946,0.031483,0.170178,-0.793457,-0.305176,-0.915527
-0.128970,0.056141,0.150647,-0.488281,-1.953125,-1.586914
-0.119448,0.026111,0.165784,-0.122070,-3.234863,-0.854492
-0.135806,0.040760,0.173840,-1.159668,-3.112793,-0.793457
-0.128970,0.033924,0.159192,1.220703,-0.671387,-1.953125
-0.119448,0.009022,0.155041,-1.464844,-2.197266,0.305176
-0.107486,0.013416,0.134534,-1.037598,-1.647949,-1.647949
-0.091372,0.039051,0.180676,0.976562,-5.371094,-2.258301
-0.057193,0.009754,0.205334,1.953125,-5.676270,-6.835938
0.062925,-0.030041,0.191662,7.568359,-3.051758,-8.056641
0.200620,-0.054699,0.132092,-2.014160,2.319336,-34.423828
0.254575,-0.069103,0.159192,3.356934,-36.315918,-35.034180
0.366636,-0.168224,0.103772,-15.869141,-98.266602,-51.391602
0.320493,-0.265881,0.023938,-0.244141,2.197266,-101.074219
0.243345,-0.193615,0.131360,-16.784668,23.803711,-119.689941
0.479429,-0.337658,0.026379,-28.442383,-55.358887,-101.196289
0.440122,-0.348156,0.142346,-32.531738,-2.136230,-136.962891
0.404477,-0.279308,0.207287,-26.428223,2.014160,-148.498535
0.589780,-0.255871,0.149182,-17.211914,-0.122070,-157.165527
0.488462,-0.177502,0.206311,-20.935059,-7.385254,-174.926758
0.568784,-0.099865,0.146496,-5.187988,-7.080078,-176.330566
0.545102,0.014881,0.200696,-13.793945,-39.123535,-167.297363
0.585141,0.175526,0.095715,-10.437012,-43.212891,-157.043457
0.543149,0.372547,0.098157,-5.371094,-17.028809,-149.169922
0.519223,0.565662,0.119885,2.502441,-21.057129,-132.385254
0.459897,0.735096,0.062756,14.526367,-5.920410,-121.154785
0.381284,0.890125,0.012707,12.939453,-37.841797,-81.115723
0.516538,0.899647,-0.090076,14.343262,-25.268555,-50.720215
0.483579,0.961414,-0.090320,4.882812,-9.399414,-29.541016
0.734555,0.901111,-0.089832,3.295898,-35.827637,7.568359
0.777036,0.896473,-0.122547,10.803223,4.394531,-5.371094
0.873227,0.824207,-0.173816,10.131836,-11.108398,5.859375
0.952329,0.776111,-0.272937,4.699707,-0.305176,2.014160
0.970151,0.691151,-0.369861,-5.615234,-3.723145,1.831055
0.930845,0.679188,-0.459217,-21.118164,10.864258,-2.685547
0.863706,0.652332,-0.470935,-39.916992,20.507812,-6.469727
0.871030,0.619617,-0.470691,-67.565918,4.333496,13.488770
0.958921,0.580067,-0.413074,-87.646484,17.700195,6.713867
0.799985,0.595936,-0.313709,-111.938477,-1.892090,22.460938
0.907651,0.576893,-0.161121,-133.300781,0.793457,28.015137
0.857602,0.606190,-0.058093,-127.319336,41.442871,13.488770
0.826108,0.607166,0.226819,-137.695312,32.470703,18.615723
0.882016,0.665516,0.027356,-103.759766,39.733887,28.015137
0.907407,0.745838,0.292004,-110.412598,48.889160,2.380371
0.901304,0.681385,0.200940,-103.698730,-2.624512,37.658691
0.778013,0.780506,0.039075,-77.270508,57.739258,19.409180
0.923764,0.707264,0.067151,-98.388672,6.530762,38.696289
1.006528,0.620594,-0.091541,-83.435059,41.564941,20.507812
0.640561,0.648182,0.153088,-124.572754,10.742188,51.208496
1.206968,0.532703,0.256360,-87.280273,12.512207,58.593750
0.913511,0.713123,0.226575,-72.082520,45.715332,22.888184
0.969663,0.778553,0.140149,-48.828125,60.546875,16.540527
1.035825,0.778797,0.155285,-48.645020,41.564941,6.713867
1.063413,0.767567,0.234875,-23.620605,14.343262,19.165039
1.108579,0.728016,0.110608,-17.822266,17.944336,2.014160
0.919370,0.750477,0.254895,-13.916016,18.188477,3.479004
1.243589,0.759510,0.246350,2.197266,-25.817871,10.803223
1.029721,0.733631,0.244885,18.798828,-19.714355,-29.907227
0.875913,0.793445,0.148205,26.184082,-43.395996,-3.051758
0.994321,0.775867,0.182873,34.729004,-1.342773,-5.859375
1.014341,0.730457,0.414319,42.114258,-14.709473,-2.807617
1.071225,0.657703,0.247571,77.636719,-45.654297,-8.117676
0.996763,0.618641,0.299328,77.880859,-18.615723,-30.883789
1.007749,0.571277,0.373791,103.088379,-37.292480,-35.583496
0.905942,0.499500,0.309582,127.807617,-31.860352,-46.203613
0.862729,0.435779,0.244885,132.507324,-70.556641,-37.597656
0.770688,0.484363,0.114270,140.197754,-70.800781,-48.706055
0.801694,0.438221,-0.133777,139.160156,-67.077637,-24.108887
0.878843,0.461902,0.009289,131.408691,-40.954590,-53.100586
0.700132,0.536854,-0.075427,133.850098,-34.484863,-37.109375
0.866147,0.513416,-0.120593,129.394531,-24.108887,-23.742676
0.885190,0.579578,-0.175037,112.670898,-11.718750,-25.573730
0.957212,0.582752,-0.177234,108.764648,-15.563965,-12.939453
0.994321,0.562000,-0.279285,100.891113,-30.517578,-21.911621
0.813413,0.586902,-0.458240,97.961426,-13.732910,-41.503906
0.730405,0.672352,-0.569324,55.664062,-47.424316,-8.544922
0.690122,0.733875,-0.379138,28.503418,-12.084961,-9.155273
0.448179,0.913319,-0.389881,22.033691,-13.916016,29.602051
0.544126,0.833729,-0.164050,4.943848,-17.395020,40.466309
0.288755,0.856922,-0.174549,18.920898,-24.902344,65.185547
0.264829,0.713123,-0.189441,8.483887,0.549316,101.867676
0.312192,0.593006,-0.020740,-1.037598,41.931152,127.990723
0.730893,0.259022,-0.032459,-0.183105,18.493652,150.695801
0.481626,0.320789,0.146496,6.286621,30.090332,140.686035
0.595151,0.035389,-0.025867,19.042969,39.855957,151.367188
0.424253,-0.049084,0.165539,18.188477,-0.488281,183.410645
0.368589,-0.214123,0.184826,12.756348,46.020508,172.302246
0.692563,-0.345471,0.143567,30.456543,-21.972656,202.880859
0.518979,-0.358654,0.086438,43.762207,118.591309,121.093750
0.299497,-0.292736,0.359875,24.414062,44.067383,138.122559
0.591733,-0.320812,0.135754,35.827637,26.245117,131.103516
0.294370,-0.254406,0.347424,31.860352,107.421875,63.781738
0.274839,-0.241711,0.251477,39.123535,58.349609,86.364746
0.320005,-0.091808,0.299328,16.845703,65.673828,53.588867
0.176450,-0.091320,0.272961,16.784668,55.419922,44.616699
0.273374,-0.055187,0.280530,15.319824,54.504395,29.357910
0.148374,0.009510,0.268567,11.962891,24.291992,15.686035
0.142026,-0.008312,0.240735,2.868652,-0.915527,9.033203
0.125913,0.006824,0.210950,8.422852,24.536133,-19.042969
-0.023501,0.040760,0.336194,-0.244141,-5.859375,-24.658203
-0.046695,0.032703,0.301526,8.300781,6.469727,-34.301758
-0.108706,0.086658,0.323987,1.098633,-9.338379,-29.663086
0.147641,-0.004650,0.219006,2.197266,-31.677246,-26.733398
0.292417,-0.089123,0.262219,-13.122559,-22.216797,-44.433594
0.536313,-0.153820,0.382825,-10.314941,-44.738770,-57.312012
0.543149,-0.200451,0.365491,-7.568359,-46.936035,-103.332520
0.584653,-0.308849,0.360364,-2.990723,-59.387207,-124.267578
0.634458,-0.371594,0.395276,-12.390137,-76.721191,-153.503418
0.529233,-0.383801,0.333264,-7.141113,-72.875977,-171.081543
0.620298,-0.414806,0.348157,-22.216797,-92.590332,-174.743652
0.606138,-0.236096,0.381604,-15.197754,-64.575195,-190.307617
0.596372,-0.155285,0.347912,-9.521484,-66.589355,-194.274902
0.466489,0.027088,0.296643,-3.845215,-40.954590,-197.387695
0.413266,0.260975,0.171887,-2.624512,-69.335938,-165.954590
0.444272,0.440662,0.078869,-12.329102,-66.284180,-145.629883
0.316587,0.698963,0.088635,-8.422852,-50.415039,-119.323730
0.439145,0.772449,0.049084,-4.272461,-54.931641,-85.083008
0.354917,0.937977,-0.091052,8.728027,-13.916016,-66.406250
0.500180,0.924305,-0.138660,-8.850098,-59.082031,-21.118164
0.633481,0.871326,-0.208484,4.455566,-16.784668,-18.066406
0.689389,0.846668,-0.374256,3.845215,-9.765625,-8.239746
0.718686,0.770985,-0.473621,-3.234863,5.798340,-3.051758
0.828794,0.722889,-0.591297,-40.283203,-19.653320,24.536133
0.859555,0.667225,-0.465076,-61.462402,41.259766,6.286621
0.806821,0.694080,-0.391590,-80.627441,11.291504,21.972656
0.937436,0.595447,-0.334217,-106.201172,-0.793457,34.484863
0.838559,0.641590,-0.231189,-106.750488,25.024414,20.263672
0.878598,0.584461,-0.174060,-115.539551,2.929688,44.677734
0.754575,0.547108,-0.178211,-124.816895,54.138184,27.221680
0.688413,0.627186,0.042737,-128.234863,11.108398,67.016602
1.180600,0.320301,-0.144031,-134.399414,31.005859,71.105957
0.830747,0.576404,0.208752,-135.620117,101.440430,4.943848
1.105161,0.480701,0.114514,-117.553711,26.428223,46.447754
0.701841,0.574207,0.012951,-76.782227,220.703125,-75.012207
0.952817,0.509998,0.230725,-172.119141,-58.898926,92.163086
1.219907,0.520252,0.322033,-121.643066,81.481934,-19.592285
0.857602,0.750965,0.403088,-119.384766,-16.845703,28.686523
0.956479,0.769276,0.276623,-90.148926,7.629395,20.507812
0.814634,0.883289,0.515393,-84.899902,14.648438,27.893066
1.038755,0.927235,0.508069,-46.569824,24.108887,18.066406
1.003843,0.994617,0.461926,-24.047852,-19.653320,24.047852
1.116880,0.922352,0.407971,21.362305,-7.019043,8.728027
1.088804,0.826160,0.335950,45.227051,-18.127441,2.075195
1.211850,0.712391,0.203869,63.964844,-37.963867,0.000000
1.076108,0.718006,0.246838,60.913086,-20.324707,-17.333984
1.058042,0.714344,0.250012,85.876465,-6.530762,-42.297363
0.954038,0.683094,0.303235,93.566895,-58.654785,-31.250000
0.962339,0.608143,0.356946,115.783691,-33.203125,-35.278320
1.015317,0.450428,0.240735,128.112793,-22.338867,-50.231934
0.946470,0.513416,0.177014,142.517090,-12.023926,-62.011719
0.959409,0.472645,0.109387,131.896973,-5.004883,-59.631348
0.854184,0.572498,0.199475,138.061523,1.770020,-46.997070
0.945981,0.554920,0.162121,138.732910,-18.371582,-32.165527
0.752866,0.717518,0.088147,140.197754,14.831543,-39.978027
0.791684,0.630115,0.057385,135.864258,-26.611328,-0.427246
0.905210,0.607654,-0.127429,141.479492,21.911621,-25.939941
0.987241,0.606190,-0.136707,116.638184,-0.183105,-21.423340
0.912778,0.674305,-0.287586,112.243652,12.451172,-11.169434
0.910093,0.702625,-0.303211,88.134766,-31.433105,0.061035
0.828305,0.713123,-0.463123,70.190430,-42.419434,3.173828
0.544370,0.836902,-0.452625,36.560059,-26.123047,22.033691
0.548032,0.811756,-0.312976,13.000488,-29.907227,52.856445
0.371030,0.830067,-0.176746,1.037598,-4.455566,56.396484
0.649106,0.708973,-0.104724,-7.568359,-60.607910,132.446289
0.572202,0.627186,-0.090564,0.854492,46.997070,75.073242
0.607358,0.566883,0.049084,-9.338379,-1.708984,136.962891
0.598813,0.439686,0.040295,-0.122070,47.119141,113.525391
0.563169,0.330555,0.157239,-4.028320,24.291992,138.549805
0.740171,0.133045,0.131848,8.239746,41.137695,145.141602
0.355161,0.038074,0.279065,11.962891,44.006348,143.249512
0.518003,-0.097180,0.133801,19.470215,0.244141,184.509277
0.528013,-0.190930,0.218518,3.479004,-36.193848,176.574707
0.529966,-0.288342,0.154553,44.860840,52.734375,139.770508
0.442319,-0.285900,0.156262,21.362305,58.959961,127.258301
0.431577,-0.266857,0.247326,18.920898,71.350098,124.145508
0.515317,-0.311535,0.235608,20.446777,91.247559,97.167969
0.429868,-0.187023,0.308117,9.155273,50.842285,107.849121
0.639341,-0.212902,0.154797,11.718750,78.125000,50.903320
0.259702,0.054920,0.287610,19.958496,148.681641,5.310059
0.561948,-0.069836,0.208020,2.136230,15.380859,37.414551
0.443296,-0.064709,0.321789,-2.563477,-6.042480,-2.990723
0.507993,-0.080822,0.254651,-0.366211,-40.405273,-24.780273
0.425473,-0.082775,0.308117,0.915527,-20.874023,-66.284180
0.450132,-0.087902,0.282483,0.549316,-38.208008,-81.359863
0.509458,-0.244396,0.242932,0.610352,-28.747559,-108.703613
0.535825,-0.324719,0.261487,-12.023926,-67.199707,-123.779297
0.585874,-0.340344,0.291516,-13.061523,-78.002930,-138.488770
0.574155,-0.327404,0.293225,-15.502930,-87.036133,-155.761719
0.531675,-0.286144,0.229748,-20.202637,-73.852539,-168.579102
0.540708,-0.176037,0.238049,-21.484375,-59.326172,-171.997070
0.546567,-0.021008,0.226575,-14.953613,-51.513672,-166.320801
0.642514,0.039783,0.124035,-22.338867,-70.556641,-155.212402
0.541929,0.278065,0.117444,-19.897461,-45.349121,-154.846191
0.600522,0.373524,0.059094,-28.930664,-108.032227,-119.140625
0.532407,0.566639,-0.090320,-8.544922,-29.357910,-129.760742
0.548276,0.694080,-0.105213,-23.681641,-43.395996,-102.111816
0.585874,0.762928,-0.099597,-16.906738,-11.230469,-94.360352
0.488218,0.922352,-0.071521,-9.338379,5.737305,-82.580566
0.501889,0.988514,-0.087390,-0.793457,-15.136719,-42.541504
0.564878,0.990223,-0.217029,1.220703,-0.915527,-31.250000
0.624204,0.936024,-0.226795,-1.281738,-3.662109,-13.183594
0.725522,0.849110,-0.459705,4.760742,-6.225586,-1.159668
0.743345,0.795643,-0.653064,-24.841309,-10.803223,16.540527
0.841977,0.723133,-0.590564,-50.781250,6.835938,23.193359
0.829526,0.647205,-0.528552,-75.866699,26.794434,22.460938
0.836118,0.609852,-0.420398,-107.849121,22.277832,34.667969
0.685483,0.676746,-0.215076,-104.370117,70.190430,12.023926
0.815854,0.566395,-0.183582,-143.066406,-22.827148,82.153320
1.077329,0.489246,-0.083972,-140.014648,53.405762,43.701172
0.959165,0.609852,0.035901,-138.793945,33.386230,45.349121
1.213071,0.454334,0.104992,-123.718262,48.400879,30.334473
0.689145,0.707264,-0.121326,-100.524902,110.351562,-21.728516
1.111020,0.441151,0.157239,-173.461914,-82.702637,94.848633
0.941343,0.489002,0.136487,-129.943848,153.137207,-24.047852
0.714536,0.786610,0.272229,-115.661621,80.017090,-14.282227
1.043149,0.580799,0.482678,-151.733398,-81.481934,91.735840
1.050473,0.715565,0.412610,-96.679688,91.674805,-2.136230
0.966733,0.870106,0.562512,-91.186523,20.751953,30.517578
1.031675,0.992664,0.542493,-50.964355,58.410645,15.075684
0.987729,1.047596,0.675061,-45.776367,-61.340332,63.110352
1.183286,0.942860,0.384533,26.672363,18.676758,0.610352
1.149350,0.884022,0.661633,22.338867,-46.203613,4.638672
1.237973,0.719227,0.376477,80.993652,-19.531250,-10.620117
1.065366,0.739979,0.426037,74.523926,-33.752441,-32.775879
1.126645,0.653553,0.346692,103.271484,-65.185547,-16.784668
1.075864,0.599598,0.232190,111.816406,-30.700684,-51.574707
0.919370,0.544422,0.298352,116.394043,-45.410156,-49.804688
1.005796,0.520496,0.115735,136.413574,-40.100098,-46.752930
0.800473,0.669666,0.112073,121.459961,-39.245605,-57.495117
1.008725,0.514149,0.067639,138.977051,-89.538574,-21.484375
0.791929,0.577137,-0.049549,131.835938,-5.126953,-57.312012
0.754331,0.681385,0.007580,114.562988,-7.446289,-44.677734
0.892026,0.658436,-0.026355,108.581543,-3.601074,-26.672363
0.670346,0.932606,0.232190,106.872559,85.571289,-54.443359
1.001645,0.678455,0.119397,138.610840,-16.052246,-3.784180
1.045102,0.623524,-0.212146,131.225586,-8.483887,-16.235352
0.976255,0.609119,-0.290271,120.910645,24.169922,-40.466309
0.745786,0.717274,-0.357898,91.247559,20.141602,-22.583008
0.718198,0.785877,-0.387439,64.697266,-6.774902,8.361816
0.663755,0.777332,-0.391834,41.809082,0.610352,19.042969
0.579770,0.881092,-0.312976,15.014648,-18.371582,52.307129
0.534848,0.796375,-0.264392,5.126953,-1.525879,62.072754
0.487241,0.808094,-0.013660,-4.943848,-45.227051,110.961914
0.598325,0.632069,-0.170642,-9.948730,24.963379,93.200684
0.736264,0.558094,0.059582,-23.071289,9.338379,127.319336
0.710874,0.524402,0.099377,-23.010254,42.968750,101.745605
0.643003,0.327137,0.233899,-4.760742,22.888184,119.018555
0.642026,0.271717,0.051526,20.629883,67.077637,119.567871
0.635923,0.146961,0.107190,-5.004883,46.203613,135.742188
0.426938,0.073475,0.381116,-6.408691,45.898438,138.610840
0.615171,-0.232433,0.122326,12.634277,-2.197266,164.367676
0.413511,-0.221935,0.240979,0.244141,58.776855,142.333984
0.564145,-0.336681,0.229260,-5.615234,-2.746582,169.921875
0.466245,-0.292980,0.188489,-3.845215,131.896973,102.294922
0.252622,-0.151867,0.423108,-9.033203,79.711914,135.620117
0.544126,-0.302746,0.243909,-1.708984,48.706055,133.422852
0.350278,-0.132336,0.397717,-10.742188,70.617676,103.576660
0.575376,-0.126965,0.300305,5.615234,28.076172,96.679688
0.508237,-0.038586,0.314221,1.892090,35.339355,46.752930
0.556089,-0.005383,0.232190,12.451172,25.878906,15.319824
0.530942,-0.038342,0.215100,9.887695,28.015137,-27.099609
0.457944,-0.041027,0.329114,5.920410,-24.169922,-50.292969
0.525571,-0.096203,0.265149,14.282227,-57.495117,-72.387695
0.463559,-0.232922,0.286145,5.981445,-38.208008,-111.633301
0.549985,-0.317394,0.276623,2.441406,-71.350098,-119.934082
0.627866,-0.411633,0.280041,-6.652832,-54.748535,-162.597656
0.443540,-0.341808,0.390149,-3.234863,-52.062988,-176.635742
0.573179,-0.366711,0.330578,-5.249023,-87.524414,-161.499023
0.612729,-0.289562,0.309582,-11.718750,-62.561035,-190.002441
0.587583,-0.138439,0.260510,-2.746582,-68.603516,-172.241211
0.622007,-0.010510,0.238782,-10.925293,-64.575195,-178.405762
0.566587,0.128895,0.162121,-5.859375,-57.861328,-173.645020
0.531675,0.356922,0.158948,-2.075195,-60.058594,-149.108887
0.515317,0.502674,0.017834,-1.464844,-39.489746,-136.474609
0.538022,0.678455,-0.034656,-6.896973,-41.564941,-109.741211
0.646909,0.740955,-0.097888,-18.066406,-43.334961,-89.294434
0.528501,0.867176,0.011242,-4.028320,12.390137,-94.482422
0.476743,1.017078,-0.052966,3.845215,-20.324707,-60.058594
0.514096,1.034901,-0.152576,15.991211,-25.390625,-31.005859
0.586362,1.021473,-0.228259,-0.122070,-35.888672,-8.056641
0.733579,0.960682,-0.338123,-5.004883,-24.291992,3.112793
0.693052,0.973621,-0.371814,-15.075684,-12.207031,10.437012
0.849057,0.862293,-0.443347,-27.832031,-6.835938,32.287598
0.880796,0.843983,-0.485584,-46.997070,6.164551,23.620605
0.922788,0.749500,-0.394763,-71.838379,-20.812988,36.315918
0.956479,0.725819,-0.439929,-80.505371,-16.418457,46.508789
0.902036,0.728016,-0.374988,-97.167969,-2.502441,41.625977
0.871763,0.665272,-0.294422,-99.853516,10.498047,40.954590
0.916684,0.584217,-0.329090,-115.966797,13.977051,50.476074
0.862729,0.549061,-0.188953,-127.746582,53.344727,35.400391
0.932309,0.543201,-0.171619,-133.300781,23.742676,61.889648
0.978208,0.528065,-0.027332,-143.737793,67.871094,26.672363
0.845639,0.601551,0.143811,-144.165039,27.343750,46.386719
1.071714,0.509510,-0.002429,-122.985840,39.062500,35.278320
0.926206,0.637440,0.066907,-128.906250,28.747559,35.766602
0.934751,0.676990,0.123547,-128.662109,7.507324,47.790527
1.052182,0.644276,0.237805,-100.891113,-40.466309,56.091309
0.951596,0.758777,0.056897,-66.955566,63.720703,23.315430
1.054868,0.815418,0.208020,-83.923340,49.438477,9.765625
0.895688,0.972156,0.318371,-68.298340,64.697266,7.751465
0.974302,0.982410,0.541760,-51.513672,-20.568848,28.320312
1.065366,0.942127,0.425549,2.868652,-28.625488,56.091309
1.279721,0.949695,0.137707,31.738281,-11.535645,9.826660
1.288755,0.766834,0.371594,32.531738,-24.414062,-10.009766
1.256040,0.720692,0.219983,71.533203,-36.926270,-28.381348
1.085874,0.710682,0.260510,90.942383,-2.014160,-66.833496
0.930356,0.704334,0.150403,104.858398,-41.809082,-48.461914
0.967710,0.689930,0.142346,125.000000,-26.184082,-49.621582
0.915952,0.584461,0.151867,114.501953,-34.790039,-67.810059
0.971616,0.579822,0.066662,150.207520,-17.272949,-54.626465
0.795346,0.539295,0.122326,131.408691,-10.864258,-53.833008
1.119565,0.437488,-0.011951,120.239258,-81.542969,-15.808105
0.925229,0.483631,0.086438,136.169434,31.921387,-68.725586
0.949888,0.492176,-0.067615,150.329590,18.066406,-60.546875
0.755552,0.664051,-0.123035,141.174316,51.025391,-63.842773
0.800718,0.673328,-0.172107,127.380371,-7.690430,-22.583008
0.899106,0.662342,-0.356922,116.455078,44.128418,-33.874512
0.866147,0.786610,-0.345691,86.669922,4.455566,-3.417969
0.946470,0.751942,-0.443592,81.237793,41.992188,-23.254395
0.684263,0.863758,-0.282459,55.053711,19.104004,-4.699707
0.723325,0.847156,-0.338855,34.057617,-30.456543,31.494141
0.516538,0.991932,-0.178211,22.216797,-0.427246,34.118652
0.679624,0.778309,-0.176258,7.385254,-66.589355,82.336426
0.552671,0.771473,-0.128894,10.620117,5.249023,72.570801
0.632749,0.654285,-0.161121,-7.995605,-0.793457,96.923828
0.582456,0.586658,0.011487,-14.953613,36.804199,88.928223
0.625669,0.464344,-0.119861,-29.907227,-22.338867,119.873047
0.402768,0.347401,0.002942,-29.846191,83.312988,100.341797
0.391538,0.183582,0.246350,-9.155273,11.047363,189.086914
0.621518,-0.147228,-0.009265,-9.765625,52.490234,173.583984
0.388364,-0.127209,0.384289,-6.652832,-5.004883,208.862305
0.533384,-0.505139,-0.036609,20.324707,26.916504,207.885742
0.358335,-0.481701,0.260754,-11.413574,64.331055,207.824707
0.554380,-0.566662,0.208752,-2.624512,67.993164,208.740234
0.475278,-0.475353,0.322522,-7.873535,49.133301,202.148438
0.764096,-0.378674,0.163098,11.596680,122.314453,121.276855
0.480649,-0.106945,0.356946,3.356934,73.852539,83.618164
0.533384,-0.098889,0.128186,19.836426,33.691406,53.771973
0.424009,-0.021496,0.229748,11.901855,41.870117,16.906738
0.437436,0.017567,0.195813,19.287109,6.958008,-2.624512
0.514096,-0.091564,0.171399,11.962891,-44.433594,-31.738281
0.387632,-0.131603,0.257825,21.606445,6.774902,-86.853027
0.533628,-0.194348,0.160168,22.460938,-42.297363,-88.745117
0.755307,-0.474865,0.034192,3.662109,-50.659180,-140.502930
0.662534,-0.527599,0.222180,-7.324219,-75.012207,-173.156738
0.759946,-0.681408,0.132580,-4.089355,-33.142090,-218.322754
0.334409,-0.583508,0.332043,5.737305,17.028809,-255.187988
0.462583,-0.420422,0.321301,-9.582520,-108.276367,-198.364258
0.576841,-0.294933,0.125500,-20.019531,-78.491211,-205.078125
0.535093,-0.063244,0.219739,-24.536133,-73.974609,-200.134277
0.512388,0.119861,0.117688,-14.709473,-57.373047,-186.767578
0.507016,0.306385,0.146985,-16.174316,-45.166016,-177.062988
0.368589,0.616444,0.127942,-1.770020,-27.770996,-154.785156
0.481870,0.756336,0.074231,-7.629395,-70.373535,-116.027832
0.359067,0.907947,-0.006336,5.065918,-33.752441,-110.107422
0.311704,1.056141,-0.152332,19.287109,-28.442383,-69.335938
0.347837,1.057850,-0.183338,23.193359,-16.662598,-21.118164
0.519468,0.951649,-0.377185,45.715332,0.610352,25.329590
0.547300,0.894764,-0.713611,-20.507812,-7.995605,3.356934
0.703305,0.780994,-0.779529,-42.480469,12.023926,33.874512
0.745298,0.714588,-0.701160,-91.186523,1.098633,41.076660
0.754087,0.678211,-0.549060,-118.103027,9.277344,53.588867
0.823179,0.463611,-0.326160,-155.517578,7.995605,73.730469
0.992368,0.470447,-0.192371,-162.292480,-12.939453,116.088867
1.099790,0.470447,-0.089832,-155.090332,13.366699,72.143555
0.930356,0.438465,0.005627,-135.864258,36.804199,44.921875
0.946958,0.466541,-0.041980,-144.042969,-1.159668,68.908691
0.867368,0.472401,0.050305,-133.117676,91.491699,35.583496
0.914975,0.469715,0.118909,-131.042480,59.387207,55.419922
0.934507,0.602283,0.084973,-109.313965,85.327148,33.996582
0.940854,0.697742,0.362073,-117.919922,73.364258,43.823242
1.043393,0.637195,0.422619,-100.585938,60.180664,46.447754
1.062680,0.801990,0.564953,-96.862793,43.029785,30.395508
1.097837,0.899891,0.572766,-53.039551,25.085449,32.287598
1.176450,0.853260,0.702649,-32.531738,-9.094238,15.319824
1.228208,0.792957,0.606946,22.033691,-19.104004,11.108398
1.186216,0.757313,0.433362,37.414551,-14.587402,-11.718750
1.168882,0.724354,0.395032,69.641113,-37.353516,-21.484375
1.156675,0.713611,0.277600,83.984375,-51.696777,-43.457031
1.001645,0.645008,0.247326,99.243164,-40.039062,-56.396484
0.880063,0.554432,0.218030,108.642578,-33.386230,-50.048828
0.961850,0.575672,0.091076,108.093262,-60.241699,-33.447266
0.985532,0.530262,0.019055,117.736816,-30.090332,-55.297852
0.916929,0.610340,0.034192,113.830566,-48.645020,-51.269531
0.835874,0.570545,0.080578,120.117188,-14.587402,-65.917969
0.767026,0.644276,0.093762,115.722656,-82.214355,-27.404785
0.905698,0.615467,-0.179675,125.976562,-57.861328,-51.269531
0.775571,0.660633,-0.145252,127.929688,8.911133,-53.283691
0.808042,0.657459,-0.173084,115.722656,-2.014160,-32.592773
0.768735,0.725086,-0.319568,119.812012,55.480957,-39.855957
0.949399,0.697010,-0.270740,94.787598,30.639648,-16.906738
0.750913,0.791981,-0.313953,81.970215,46.569824,-21.118164
0.874448,0.737537,-0.383777,61.767578,1.770020,10.742188
0.742856,0.798817,-0.372302,46.081543,28.137207,7.202148
0.626645,0.884754,-0.274158,29.907227,15.991211,26.550293
0.647641,0.781971,-0.207263,15.808105,-9.643555,55.114746
0.548276,0.792469,-0.125232,2.441406,1.342773,71.777344
0.542905,0.782703,-0.110584,-9.033203,1.342773,86.242676
0.608579,0.565662,0.056897,-7.263184,48.278809,96.862793
0.614194,0.546619,0.054700,-15.625000,21.545410,123.046875
0.693296,0.282703,0.199963,-11.169434,39.611816,128.295898
0.622495,0.237049,0.157727,0.305176,-19.470215,161.621094
0.617368,0.099842,0.026623,6.347656,21.484375,134.582520
0.605893,-0.041027,0.156994,12.023926,50.231934,146.972656
0.314145,-0.071545,0.121838,5.554199,124.145508,119.140625
0.354673,-0.289806,0.350110,-24.841309,-50.415039,224.914551
0.635190,-0.451916,0.141858,2.868652,30.395508,164.489746
0.228208,-0.343273,0.431653,-0.122070,76.965332,160.583496
0.558286,-0.427990,0.252942,0.610352,-24.108887,180.236816
0.421811,-0.248791,0.247571,16.906738,98.876953,106.933594
0.438413,-0.168469,0.229504,12.390137,98.327637,83.984375
0.375180,-0.085217,0.199963,1.281738,92.468262,59.936523
0.454770,-0.041027,0.180188,-8.117676,38.574219,48.156738
0.429136,0.002186,0.208996,-7.507324,42.663574,10.986328
0.372251,0.019764,0.301526,1.159668,12.084961,-18.493652
0.266782,0.028553,0.333996,7.812500,-23.803711,-42.968750
0.366636,-0.073010,0.231213,10.986328,-42.175293,-58.105469
0.497983,-0.200695,0.272473,10.559082,-22.155762,-90.148926
0.581723,-0.289562,0.332776,11.596680,-52.124023,-121.948242
0.581479,-0.469006,0.266858,20.874023,-52.551270,-158.325195
0.523374,-0.467297,0.342053,12.390137,-75.012207,-180.786133
0.586118,-0.512463,0.310315,4.638672,-98.449707,-189.758301
0.559018,-0.462902,0.333508,-1.464844,-95.886230,-193.969727
0.552915,-0.373058,0.352307,-5.859375,-97.351074,-202.697754
0.436460,-0.101574,0.291516,6.103516,-66.406250,-203.430176
0.445249,0.103992,0.173108,-2.685547,-109.924316,-165.466309
0.480649,0.325672,0.009045,-12.145996,-111.633301,-135.375977
0.537046,0.429676,0.096692,-30.334473,-48.217773,-148.864746
0.435727,0.687488,0.172375,-5.187988,-54.443359,-115.600586
0.628354,0.710194,-0.055652,1.220703,-67.382812,-91.125488
0.574155,0.810291,-0.143787,-3.601074,-11.779785,-98.022461
0.458677,0.975086,-0.082019,8.239746,8.911133,-80.627441
0.469663,0.968006,-0.229236,31.250000,2.868652,-50.476074
0.517270,0.904041,-0.458972,10.864258,-42.785645,-13.366699
0.780210,0.801258,-0.776843,5.187988,-35.339355,18.981934
0.527280,0.768055,-0.936756,-34.790039,5.249023,-13.671875
0.486509,0.769031,-0.747791,-101.745605,-20.202637,58.349609
0.844907,0.589832,-0.585681,-120.910645,66.894531,25.573730
0.713559,0.653309,-0.279529,-157.470703,42.663574,53.405762
1.038511,0.509754,-0.249256,-154.724121,10.192871,62.988281
0.699399,0.622303,-0.166004,-167.602539,2.136230,37.597656
1.060727,0.373035,0.063977,-144.348145,37.719727,70.617676
0.839780,0.475086,-0.039539,-167.663574,34.973145,44.189453
0.826352,0.525623,0.201428,-183.410645,23.132324,85.632324
1.371274,0.297596,0.177991,-154.846191,13.977051,50.903320
0.827329,0.639149,0.341321,-145.263672,40.954590,31.921387
1.046079,0.624500,0.320080,-136.657715,-2.319336,66.101074
0.833677,0.808826,0.376477,-103.393555,139.099121,-3.723145
1.012876,0.940418,0.671643,-95.458984,0.244141,52.978516
1.127622,0.902332,0.560803,-29.052734,56.030273,33.935547
1.045835,1.003895,0.560559,-14.648438,24.291992,20.996094
1.276548,0.915516,0.381604,13.061523,-18.676758,8.789062
1.235532,0.847156,0.549573,13.854980,-22.644043,-7.934570
1.195737,0.793201,0.522717,92.468262,-24.719238,1.464844
1.219663,0.712879,0.289563,80.444336,-58.593750,-19.531250
1.156675,0.641590,0.398694,102.478027,-64.819336,-43.823242
1.006772,0.524891,0.117200,128.356934,-75.500488,-69.152832
0.819272,0.597401,0.126965,119.201660,-62.133789,-62.927246
0.900571,0.488514,0.112317,128.540039,-77.209473,-41.259766
0.955503,0.468006,-0.082263,113.647461,-73.730469,-70.739746
0.821225,0.548328,-0.067615,130.920410,14.709473,-81.237793
0.912534,0.586170,-0.128894,125.549316,-38.146973,-71.899414
0.860044,0.616444,-0.188465,134.643555,10.375977,-79.284668
0.698423,0.682606,-0.130847,126.342773,37.292480,-78.857422
0.769468,0.781971,-0.276843,126.159668,12.512207,-35.766602
0.869809,0.750721,-0.444080,109.985352,-0.793457,-30.822754
0.733091,0.813953,-0.466052,89.538574,9.216309,-38.757324
0.709409,0.835438,-0.562732,74.890137,-12.939453,-10.681152
0.507505,0.911365,-0.500720,53.588867,20.629883,7.629395
0.534848,0.871815,-0.499744,20.141602,-21.362305,44.799805
0.496030,0.896961,-0.349353,11.779785,-10.559082,73.852539
0.607358,0.789295,-0.312488,-2.624512,4.394531,83.984375
0.537534,0.730213,-0.135730,-9.826660,44.555664,95.703125
0.619809,0.625965,-0.055164,-12.573242,6.103516,125.915527
0.683042,0.442371,-0.049060,-9.399414,-9.277344,146.301270
0.787046,0.322742,-0.095447,5.371094,16.845703,130.798340
0.605649,0.274158,-0.013660,6.958008,37.170410,128.234863
0.615903,0.169422,-0.059070,11.474609,43.884277,126.281738
0.540220,0.055897,0.101330,7.324219,24.230957,140.991211
0.507261,-0.080090,0.031018,21.667480,40.405273,153.259277
0.493589,-0.201183,0.084729,13.671875,39.062500,152.343750
0.544614,-0.338635,0.127698,4.516602,63.049316,146.728516
0.498227,-0.276867,0.172619,19.592285,60.058594,131.591797
0.379087,-0.234631,0.154797,12.451172,92.773438,103.271484
0.206723,-0.263439,0.205578,13.732910,89.904785,116.394043
0.327329,-0.239514,0.103772,-0.061035,37.353516,138.488770
0.397886,-0.195324,0.116467,-0.915527,25.085449,131.530762
0.532407,-0.166271,0.067639,-0.244141,22.216797,86.914062
0.377622,-0.068127,0.180432,7.995605,49.316406,36.132812
0.322202,-0.022228,0.175305,10.620117,21.362305,13.305664
0.301450,0.021473,0.172131,3.967285,0.122070,-5.249023
0.338559,-0.000500,0.196057,7.263184,-20.019531,-23.498535
0.446470,-0.077648,0.135998,6.469727,-26.855469,-51.879883
0.536069,-0.242199,0.156262,5.676270,-24.902344,-82.824707
0.604429,-0.362316,0.143567,-5.615234,-76.232910,-109.313965
0.694272,-0.522473,0.185315,-2.868652,-49.133301,-156.921387
0.607602,-0.608898,0.301526,-11.291504,-53.710938,-200.012207
0.496763,-0.597180,0.314709,-4.821777,-56.091309,-213.562012
0.508970,-0.547131,0.339856,-7.507324,-72.509766,-219.116211
0.502134,-0.408703,0.247082,-7.690430,-77.941895,-213.684082
0.534360,-0.240002,0.198742,-4.882812,-59.875488,-214.660645
0.398618,0.010486,0.171155,9.094238,-15.014648,-218.688965
0.354673,0.309559,0.120373,-0.183105,-86.425781,-170.471191
0.406675,0.464588,-0.034168,0.122070,-57.495117,-148.376465
0.361753,0.742420,-0.042713,-2.380371,-37.048340,-122.985840
0.403989,0.840320,-0.013416,-0.793457,-32.714844,-92.163086
0.417173,0.906727,-0.079578,21.057129,-34.362793,-53.100586
0.484311,0.949695,-0.296619,5.432129,-40.100098,-41.687012
0.540464,0.925037,-0.497302,18.493652,-4.943848,-27.404785
0.548764,0.926990,-0.608631,-31.250000,-32.470703,1.586914
0.860532,0.770008,-0.673816,-47.973633,-16.601562,23.498535
0.599057,0.831287,-0.579090,-63.720703,10.192871,4.333496
0.735044,0.721668,-0.660877,-91.979980,-40.222168,50.415039
0.844419,0.620350,-0.534168,-121.520996,33.996582,50.537109
0.824643,0.598377,-0.336658,-151.367188,26.306152,61.035156
0.872251,0.541004,-0.146716,-183.532715,-96.252441,112.854004
0.985532,0.548084,-0.121570,-136.718750,46.447754,75.805664
0.967466,0.493641,-0.019275,-145.874023,-26.733398,96.435547
1.104429,0.487049,-0.129383,-113.525391,39.489746,67.504883
0.856626,0.594959,0.016614,-132.141113,75.134277,34.973145
1.030454,0.628162,0.194348,-125.732422,9.033203,68.969727
1.073423,0.759022,0.088879,-67.871094,87.219238,-6.103516
0.931089,0.796863,0.041760,-82.702637,40.100098,15.075684
0.971372,0.789783,0.268078,-74.951172,68.481445,40.771484
0.972593,0.877918,0.439709,-60.546875,98.205566,26.000977
0.920346,1.062488,0.485852,-38.085938,13.061523,47.302246
1.316098,0.860584,0.490735,-12.390137,2.807617,44.006348
1.303159,0.927235,0.467053,20.996094,4.394531,-8.361816
1.146421,0.867420,0.465344,58.959961,-31.127930,-15.808105
1.123227,0.716053,0.216809,81.237793,-53.833008,-20.385742
1.016538,0.744373,0.161145,78.552246,-43.518066,-32.409668
1.005307,0.661610,0.228772,98.144531,-39.672852,-34.423828
0.941098,0.607654,0.098157,106.811523,-26.977539,-53.222656
0.898130,0.666004,0.166272,108.093262,-21.301270,-31.677246
0.992612,0.590565,0.074719,119.750977,-43.273926,-41.442871
1.007993,0.528065,0.082043,124.267578,-18.859863,-55.847168
0.990171,0.542957,0.009534,129.211426,-27.526855,-65.612793
0.642759,0.707264,-0.022937,145.080566,15.441895,-87.707520
0.844419,0.666248,-0.291492,129.455566,-67.565918,-18.310547
0.988462,0.666004,-0.233142,105.590820,2.075195,-37.963867
0.898130,0.796131,-0.204578,114.562988,39.978027,-46.325684
0.891050,0.780506,-0.283924,91.857910,-26.000977,-27.587891
0.861509,0.821277,-0.371570,79.956055,-32.958984,-16.113281
0.718930,0.873035,-0.451160,45.776367,-23.803711,-4.150391
0.631772,0.910145,-0.381824,29.602051,-8.605957,11.352539
0.597348,0.892322,-0.357410,24.047852,-3.417969,32.409668
0.532651,0.907947,-0.252429,11.657715,-4.882812,55.908203
0.456968,0.855457,-0.153064,2.014160,4.699707,73.059082
0.492612,0.724842,-0.109851,4.516602,17.700195,97.656250
0.380063,0.630848,0.043713,-1.159668,19.531250,119.018555
0.413511,0.441395,0.014416,5.981445,-23.803711,160.034180
0.551206,0.314686,-0.022205,14.709473,6.774902,173.461914
0.581723,0.016834,-0.080799,13.183594,10.131836,177.978516
0.578794,-0.083752,0.018078,33.630371,61.645508,174.865723
0.439878,-0.293957,-0.068347,17.517090,38.391113,168.151855
0.401792,-0.353283,0.094739,12.268066,83.129883,192.260742
0.491147,-0.480969,0.110852,12.207031,27.954102,187.133789
0.289487,-0.436047,0.154797,20.629883,92.346191,152.038574
0.215268,-0.397717,0.250500,15.563965,94.543457,147.705078
0.226743,-0.361340,0.192639,13.793945,90.698242,142.822266
0.257016,-0.317394,0.226819,4.272461,89.538574,134.216309
0.337827,-0.206066,0.219494,4.211426,82.031250,113.525391
0.362729,-0.119396,0.241711,0.000000,74.218750,80.871582
0.410093,-0.045422,0.213879,7.385254,51.208496,46.203613
0.417173,-0.009289,0.184338,8.483887,12.939453,20.080566
0.491391,-0.013195,0.205334,6.713867,-22.583008,-19.714355
0.444028,-0.135754,0.209973,8.422852,-66.406250,-65.979004
0.344907,-0.260265,0.288342,13.610840,-75.988770,-108.032227
0.305112,-0.291271,0.209241,11.108398,-84.899902,-142.639160
0.280698,-0.441418,0.197278,10.681152,-85.571289,-153.137207
0.548032,-0.568859,0.173596,-9.399414,-84.655762,-164.550781
0.543638,-0.584484,0.347668,-3.662109,-31.860352,-219.726562
0.551938,-0.663342,0.333508,0.305176,-68.298340,-219.421387
0.497007,-0.538098,0.272717,1.220703,-80.017090,-222.839355
0.440366,-0.358166,0.286877,-10.986328,-88.317871,-214.416504
0.339292,-0.046398,0.232434,4.882812,-49.560547,-208.190918
0.388120,0.221424,0.080578,-11.901855,-103.576660,-153.015137
0.409116,0.583973,0.037121,-11.047363,-30.212402,-134.887695
0.492612,0.652088,0.030530,-11.718750,-80.261230,-90.148926
0.504331,0.743397,-0.050769,-1.831055,-19.836426,-102.600098
0.432309,0.886463,-0.106189,9.033203,-53.955078,-72.143555
0.356870,0.920887,-0.336414,18.188477,-24.780273,-59.997559
0.384214,0.935535,-0.422840,-15.991211,-47.607422,-7.507324
0.511411,0.864735,-0.685779,0.671387,62.805176,3.356934
0.551206,0.803211,-0.649402,-78.674316,39.916992,26.733398
0.895200,0.731922,-0.441394,-79.589844,22.216797,52.917480
0.932309,0.615467,-0.452381,-83.496094,22.460938,27.587891
0.886655,0.586170,-0.369373,-103.393555,16.723633,28.076172
0.850522,0.548328,-0.360828,-115.112305,22.460938,29.907227
0.784360,0.531238,-0.244373,-138.549805,25.390625,43.701172
0.838804,0.444080,-0.195300,-149.963379,39.978027,42.907715
0.833677,0.502430,-0.054431,-162.109375,34.423828,51.879883
0.992612,0.383533,0.077405,-167.175293,-7.629395,82.763672
0.908139,0.493152,0.059582,-149.841309,49.194336,54.382324
1.065122,0.518299,0.139416,-143.798828,-3.234863,63.537598
1.198179,0.461414,0.017834,-106.079102,59.265137,23.071289
1.001645,0.523182,0.216809,-111.511230,58.776855,18.371582
1.018735,0.681385,0.105481,-82.702637,114.379883,-28.320312
0.914975,0.749500,0.277356,-96.313477,14.709473,6.896973
0.933286,0.801746,0.412854,-79.650879,22.460938,8.728027
0.817075,0.953602,0.457043,-61.889648,40.649414,15.625000
1.066587,0.964100,0.590588,-43.151855,-14.648438,54.077148
1.134214,0.937244,0.454846,-4.150391,10.070801,2.929688
1.099302,0.955067,0.568127,31.433105,5.676270,-3.234863
1.167173,0.793201,0.381604,66.894531,-48.522949,-4.089355
1.192319,0.677235,0.224866,81.359863,-36.804199,-26.123047
1.245054,0.606922,0.193371,96.679688,-68.298340,-10.742188
1.264829,0.430164,0.301526,97.656250,-10.498047,-68.054199
1.059263,0.509266,0.325207,128.601074,-25.268555,-81.542969
1.084409,0.414539,0.189465,145.568848,-29.785156,-91.003418
0.719175,0.591053,0.227795,182.128906,91.979980,-109.375000
0.658872,0.581776,0.166028,152.709961,-38.696289,-53.405762
0.797300,0.576649,-0.024890,175.170898,-20.324707,-32.226562
0.598569,0.621570,-0.064685,150.756836,13.916016,-34.790039
0.868100,0.710194,-0.171131,130.737305,-14.892578,26.245117
0.811216,0.778553,-0.145252,126.281738,58.532715,-27.832031
0.921323,0.702625,-0.085925,125.244141,-21.606445,13.061523
0.955259,0.677723,-0.478259,132.141113,16.845703,-29.296875
0.716977,0.770252,-0.551990,81.054688,-18.859863,-0.305176
0.726499,0.786365,-0.540027,52.673340,-12.451172,24.230957
0.506528,0.913319,-0.363513,16.784668,6.103516,23.254395
0.595884,0.843983,-0.226550,4.455566,-46.386719,66.894531
0.418149,0.858631,-0.247791,7.995605,30.700684,27.465820
0.371763,0.773182,-0.048816,-26.855469,-32.470703,74.829102
0.486997,0.620838,-0.016590,-3.234863,-0.610352,129.760742
0.531430,0.464588,-0.018299,-20.080566,17.578125,130.676270
0.521909,0.220692,0.180188,14.587402,-14.770508,182.678223
0.492124,0.020252,-0.058338,20.690918,6.835938,192.443848
0.464780,-0.223889,0.056897,11.718750,16.418457,217.468262
0.383237,-0.393810,0.175061,28.137207,78.369141,231.323242
0.461850,-0.579113,0.242688,1.342773,-17.517090,245.056152
0.593198,-0.797863,-0.032215,48.767090,110.534668,191.162109
0.358823,-0.612072,0.164563,-0.549316,206.481934,147.216797
0.336850,-0.443371,0.374524,-19.531250,147.705078,167.907715
0.451596,-0.378674,0.206311,-29.663086,53.283691,161.071777
0.526792,-0.209240,0.215832,-10.620117,117.858887,108.459473
0.427182,-0.094494,0.283459,-15.014648,132.019043,54.992676
0.484555,-0.005627,0.392834,-23.681641,26.428223,50.781250
0.577085,-0.019055,0.298108,-3.112793,-7.263184,-3.967285
0.472104,-0.006603,0.356701,14.953613,-38.635254,-50.048828
0.487729,-0.132092,0.297131,32.958984,-72.631836,-83.068848
0.459165,-0.361828,0.195569,34.301758,-50.415039,-118.347168
0.600522,-0.570080,0.291516,21.057129,-89.355469,-158.325195
0.511167,-0.715099,0.266614,33.081055,-62.377930,-211.425781
0.387143,-0.767834,0.286633,17.944336,-93.811035,-221.923828
0.324643,-0.646740,0.266125,14.404297,-112.792969,-222.045898
0.344175,-0.529553,0.197278,3.723145,-128.601074,-203.186035
0.581479,-0.400158,0.116467,-23.498535,-97.229004,-199.768066
0.474302,-0.073742,0.246350,-12.939453,-28.869629,-216.796875
0.418149,0.148426,0.196057,-0.427246,-43.334961,-203.063965
0.326108,0.368885,0.048108,5.432129,-47.973633,-173.889160
0.272153,0.607899,-0.021228,1.342773,-41.931152,-134.094238
0.221128,0.787830,-0.031970,10.620117,-33.386230,-94.726562
0.347104,0.857654,-0.214099,11.657715,-57.006836,-57.800293
0.351011,0.915027,-0.367908,-6.652832,-43.640137,-41.564941
0.452573,0.879139,-0.558093,-24.841309,-63.110352,-28.198242
0.507749,0.882313,-0.664539,-25.634766,9.887695,3.479004
0.697202,0.733875,-0.747547,-57.983398,-45.898438,53.649902
0.825376,0.559315,-0.713855,-91.735840,0.793457,48.522949
0.818784,0.554920,-0.568591,-122.192383,52.734375,34.851074
0.896909,0.491688,-0.326648,-137.207031,46.813965,41.687012
0.874448,0.518299,-0.226306,-144.775391,67.932129,17.272949
0.812436,0.497059,0.099621,-177.368164,-23.193359,56.945801
0.932065,0.532947,0.015393,-145.751953,25.268555,61.401367
0.870298,0.508533,-0.003650,-148.742676,59.020996,39.428711
1.006772,0.460438,0.129895,-140.991211,80.383301,46.264648
0.872251,0.554676,0.090100,-135.559082,167.907715,-14.221191
0.667661,0.676990,0.631360,-168.579102,19.897461,67.199707
1.082944,0.705067,0.343518,-78.613281,22.216797,74.645996
1.076841,0.736561,0.446545,-100.402832,96.435547,38.818359
1.173032,0.823963,0.608899,-73.059082,34.606934,35.583496
1.166929,0.830799,0.636487,-40.893555,25.512695,11.657715
1.207700,0.940174,0.548840,-10.437012,-21.911621,1.342773
1.039975,0.955067,0.619153,15.014648,-4.699707,-24.536133
0.992612,0.849842,0.664319,44.982910,-57.800293,-4.943848
0.969663,0.791736,0.335217,77.148438,-60.729980,-18.188477
0.868833,0.735096,0.337170,80.322266,-40.161133,-25.024414
0.889585,0.676746,0.440930,98.937988,-95.031738,22.583008
1.183286,0.410145,0.141858,106.323242,-112.731934,-9.765625
0.998227,0.476551,0.395276,131.713867,-53.283691,-58.837891
0.948667,0.340076,0.120129,149.597168,-96.801758,-59.020996
0.826352,0.385242,0.038342,166.992188,-26.489258,-85.815430
0.720151,0.453846,-0.111316,159.301758,-30.029297,-77.636719
0.935971,0.463856,-0.220935,139.770508,-38.146973,-53.833008
0.884702,0.523914,-0.238025,139.038086,0.244141,-68.176270
0.831479,0.589100,-0.348621,119.445801,-40.466309,-51.269531
0.778989,0.676990,-0.421863,116.516113,-21.179199,-36.499023
0.796323,0.666492,-0.567859,82.031250,-64.453125,-15.197754
0.641294,0.738270,-0.702136,64.270020,-54.443359,-23.315430
0.455503,0.827381,-0.556873,35.644531,-29.418945,2.136230
0.425229,0.793201,-0.549549,22.766113,-74.768066,53.100586
0.374204,0.836414,-0.355457,13.122559,36.254883,44.555664
0.414975,0.740223,-0.279285,14.648438,0.793457,90.087891
0.383481,0.718006,-0.126697,6.652832,24.841309,96.008301
0.695249,0.472645,-0.160388,18.859863,28.076172,98.022461
0.542417,0.409656,-0.101550,18.798828,83.984375,106.506348
0.494565,0.296375,-0.016345,5.310059,24.291992,133.666992
0.461362,0.135486,-0.059558,24.353027,42.236328,153.381348
0.383970,-0.143566,-0.055164,2.990723,-8.239746,184.753418
0.428891,-0.238781,-0.045886,23.254395,79.467773,172.607422
0.233335,-0.455578,0.271008,16.906738,30.151367,218.200684
0.387632,-0.585949,0.025891,35.095215,33.081055,230.407715
0.372495,-0.659191,0.095471,20.385742,37.292480,212.219238
0.433286,-0.535412,0.068616,30.578613,48.522949,188.049316
0.444028,-0.405041,0.046155,22.644043,56.030273,142.028809
0.388120,-0.249279,0.112073,16.845703,70.007324,101.318359
0.372495,-0.139172,0.161877,13.488770,18.737793,75.744629
0.413999,-0.016369,0.061047,17.333984,37.841797,26.367188
0.333677,0.008045,0.075451,16.235352,62.500000,-16.418457
0.336118,0.003406,0.140149,10.925293,7.995605,-26.855469
0.403013,-0.129650,0.105725,7.141113,-25.146484,-58.837891
0.421567,-0.231701,0.167492,5.859375,-43.640137,-93.688965
0.453305,-0.374279,0.031018,6.408691,-28.015137,-129.638672
0.433042,-0.437756,0.140149,0.671387,-27.282715,-170.166016
0.506040,-0.607678,0.231213,-14.404297,-66.528320,-186.523438
0.487241,-0.705090,0.271008,-7.629395,-38.757324,-221.984863
0.415952,-0.602062,0.274182,-15.808105,-82.092285,-214.965820
0.539487,-0.527111,0.105481,-16.235352,-80.688477,-214.599609
0.446958,-0.316174,0.202893,-26.977539,-54.931641,-221.130371
0.396177,-0.088635,0.190442,-19.104004,-73.242188,-198.791504
0.401059,0.131824,0.079114,-17.333984,-29.907227,-195.983887
0.275327,0.460926,0.016614,-10.620117,-44.250488,-160.278320
0.340513,0.573719,-0.037830,-16.479492,-67.260742,-116.577148
0.302915,0.768543,-0.092517,2.197266,-19.531250,-105.346680
0.299253,0.826160,-0.248523,9.033203,-63.598633,-61.462402
0.430600,0.819813,-0.579090,-5.798340,-34.545898,-45.959473
0.425473,0.794910,-0.676746,-41.259766,-41.320801,-6.713867
0.498960,0.761463,-0.736804,-57.678223,37.841797,-8.056641
0.560239,0.755848,-0.589343,-99.853516,6.347656,40.283203
0.756284,0.642811,-0.539783,-115.661621,6.652832,61.035156
0.834897,0.556873,-0.370593,-128.784180,44.372559,51.208496
0.904233,0.526600,-0.211170,-139.221191,3.295898,64.758301
0.809751,0.521229,-0.035633,-148.986816,78.552246,54.626465
1.071225,0.528553,0.116711,-142.944336,28.930664,60.668945
0.874692,0.551502,0.182873,-141.174316,58.044434,44.250488
0.999936,0.614979,0.015393,-114.013672,-4.150391,55.541992
0.907163,0.613026,0.110608,-122.192383,59.997559,45.288086
1.022153,0.650867,0.311291,-102.233887,35.339355,52.185059
0.969907,0.686268,0.110119,-90.942383,4.516602,52.795410
0.995786,0.711658,0.099377,-73.059082,36.926270,38.635254
1.012143,0.724842,0.053723,-54.992676,21.484375,31.311035
1.131528,0.732654,0.053479,-53.405762,22.644043,24.353027
0.959653,0.862781,0.113537,-25.939941,47.851562,4.211426
1.026304,0.773182,-0.003406,-27.587891,-4.028320,18.920898
0.986509,0.827381,-0.037341,-27.770996,24.597168,2.746582
1.015561,0.728992,0.080578,-9.521484,-4.150391,15.808105
0.990903,0.823475,0.076184,-21.484375,-17.211914,10.559082
1.100522,0.716297,0.193371,3.784180,-45.104980,16.479492
0.984067,0.777332,0.062756,24.536133,-3.906250,-24.169922
0.888120,0.749988,0.001965,29.418945,-20.080566,-16.845703
0.871030,0.725086,-0.073474,30.151367,-24.719238,-5.615234
0.903745,0.743397,-0.074939,33.630371,-27.038574,0.122070
0.953061,0.735340,-0.013416,26.611328,-14.465332,0.488281
1.013364,0.722645,0.163342,43.823242,-9.460449,-8.666992
1.126401,0.611561,0.142346,55.725098,-38.452148,-14.892578
1.061216,0.625233,0.158703,80.810547,-26.916504,-42.114258
1.054136,0.606922,0.028821,97.717285,-41.442871,-59.387207
0.943296,0.577625,0.013440,105.407715,-22.460938,-63.354492
0.962339,0.581776,0.063244,97.717285,-61.523438,-52.001953
0.965268,0.508777,-0.040027,122.985840,-10.620117,-67.565918
0.905698,0.572254,-0.057117,110.351562,-53.771973,-50.354004
0.879331,0.594227,-0.125965,122.680664,8.666992,-69.641113
0.888852,0.597401,-0.187244,112.854004,-22.338867,-54.504395
0.897886,0.586658,-0.166004,116.882324,3.723145,-57.617188
0.809263,0.640125,-0.233142,110.656738,3.784180,-43.823242
0.773130,0.770008,-0.281482,100.708008,6.896973,-40.649414
0.783139,0.776600,-0.388660,96.496582,-8.117676,-30.151367
0.976011,0.715076,-0.424549,76.538086,-19.958496,-19.958496
0.849302,0.772449,-0.358631,56.030273,-1.586914,-10.009766
0.831479,0.843006,-0.426258,41.320801,-2.197266,-14.038086
0.861753,0.818104,-0.514881,31.433105,-26.306152,2.258301
0.774839,0.882069,-0.356189,10.803223,14.099121,-4.211426
0.747983,0.907703,-0.238269,-5.493164,-5.187988,20.202637
0.741147,0.917957,-0.162097,-2.197266,3.234863,24.841309
0.570249,0.910877,-0.120838,-2.075195,2.563477,36.010742
0.523862,0.864735,-0.113269,-2.441406,0.061035,58.166504
0.556577,0.738270,-0.101550,5.737305,16.662598,64.941406
0.388120,0.723865,0.063489,3.479004,16.723633,84.533691
0.432554,0.548328,-0.016345,22.216797,-13.305664,123.962402
0.250913,0.420643,0.006360,17.578125,21.240234,142.517090
0.412778,0.186268,0.033703,24.047852,8.850098,196.899414
0.552427,-0.137951,0.074719,27.343750,21.667480,217.834473
0.650083,-0.220715,0.033948,22.949219,31.066895,212.036133
0.715268,-0.305676,0.094739,31.860352,51.635742,177.856445
0.633237,-0.400402,0.159924,18.310547,23.010254,173.767090
0.624936,-0.420422,0.133801,45.898438,19.958496,137.939453
0.587827,-0.397961,0.011731,39.611816,15.075684,108.581543
0.432309,-0.248303,0.027356,36.804199,23.071289,87.402344
0.510190,-0.199963,-0.056140,28.747559,18.615723,63.720703
0.320737,-0.080822,0.094983,16.906738,50.964355,30.822754
0.249936,-0.053234,0.116467,7.507324,11.047363,28.320312
0.219419,-0.013195,0.129651,3.479004,37.780762,3.234863
0.145932,-0.002941,0.188000,-0.061035,32.348633,0.915527
0.115415,-0.055676,0.230969,-0.671387,23.010254,-2.319336
0.100278,0.005848,0.200940,-6.652832,14.099121,-13.732910
-0.034243,0.069569,0.220715,3.173828,3.906250,-15.991211
-0.045230,0.031727,0.218274,1.037598,-20.874023,-12.268066
-0.152652,0.056629,0.218274,6.591797,0.061035,-16.723633
-0.084536,0.032703,0.188244,2.563477,-12.329102,3.112793
-0.038882,0.007069,0.167248,4.577637,-6.713867,7.019043
-0.021548,0.030506,0.143078,1.647949,0.854492,3.295898
0.008237,-0.001476,0.153821,-0.854492,-5.737305,7.568359
0.025815,-0.001476,0.139172,-3.112793,7.263184,-1.586914
0.009214,0.025867,0.195080,-3.112793,5.126953,-0.915527
-0.022525,0.043445,0.226819,-0.671387,8.666992,-3.784180
-0.033755,0.006336,0.209241,0.732422,-1.159668,2.136230
-0.014224,0.048084,0.188733,-0.610352,-1.281738,1.098633
0.011167,0.041248,0.220715,-2.197266,0.183105,-0.915527
-0.035708,0.032459,0.189221,3.662109,-2.746582,-1.281738
-0.014712,0.036365,0.233166,1.831055,-0.854492,0.244141
-0.040591,0.032215,0.213635,0.488281,-5.676270,-0.854492
-0.026919,0.020008,0.202405,1.159668,-2.868652,-0.244141
-0.031314,0.022205,0.171887,-1.647949,-0.549316,-0.488281
-0.028140,0.026600,0.207532,-2.807617,0.976562,-0.366211
-0.024478,0.020496,0.233899,0.610352,-1.281738,0.549316
-0.027896,0.042225,0.168713,-0.122070,-3.723145,0.061035
-0.032046,0.027820,0.217053,-1.647949,2.929688,-1.892090
-0.029849,0.039783,0.208264,-1.770020,-4.028320,0.061035
-0.024234,0.041492,0.189709,-0.732422,0.549316,-0.671387
-0.015689,0.034901,0.189709,-2.136230,-0.793457,-0.488281
-0.012271,0.031483,0.212903,-2.624512,-0.732422,-2.136230
-0.046695,0.053944,0.188244,0.549316,-1.525879,-0.732422
-0.009097,0.019031,0.204846,-2.502441,-1.098633,-1.098633
-0.045962,0.021717,0.233410,-0.915527,-1.892090,-0.244141
-0.020816,0.018787,0.175549,-1.403809,-0.671387,0.305176
-0.041323,0.048572,0.224377,-1.525879,-1.098633,-1.037598
-0.027163,0.017322,0.199719,-2.441406,-0.549316,-0.671387
-0.047427,0.020008,0.247571,-0.915527,-0.183105,-1.098633
0.003110,0.022449,0.194104,0.366211,-1.892090,0.793457
-0.023745,0.025623,0.227063,-0.793457,-0.976562,-1.892090
-0.017642,0.016346,0.185803,0.305176,-3.356934,-2.441406
-0.040103,0.034412,0.171399,-1.831055,1.220703,-2.624512
-0.044986,0.038319,0.214612,0.549316,0.671387,-1.770020
-0.034976,0.040027,0.175061,-1.098633,-4.272461,0.061035
-0.031558,0.027332,0.188000,0.671387,2.746582,-1.342773
-0.022769,0.026356,0.193127,-0.061035,-2.441406,1.586914
-0.028140,0.018543,0.179700,-1.281738,-2.502441,-1.037598
-0.025454,0.027088,0.184338,0.244141,-1.647949,-0.427246
-0.024722,0.026111,0.200451,-3.356934,-1.220703,-3.845215
-0.041079,0.011219,0.193860,-0.915527,-1.220703,-0.793457
-0.041079,0.016102,0.222180,-2.807617,-1.281738,-4.455566
-0.050112,0.040516,0.187024,1.831055,-3.601074,0.366211
-0.028384,0.025867,0.187756,-2.746582,0.305176,-2.868652
-0.036685,0.037098,0.199963,0.244141,-0.671387,-0.061035
-0.032290,0.019276,0.207532,-0.305176,-0.793457,-1.037598
-0.032290,0.008045,0.204114,-0.854492,-2.197266,-1.159668
-0.038638,0.025379,0.201672,-0.488281,0.366211,-0.122070
-0.038638,0.039539,0.215100,-1.892090,0.488281,-2.197266
-0.032534,0.047596,0.171887,0.610352,-4.150391,0.061035
-0.031802,0.030994,0.189465,-2.197266,-1.647949,-1.892090
-0.029116,0.041004,0.204114,-0.610352,-1.708984,0.366211
-0.018862,0.023914,0.181897,-0.183105,-0.854492,-1.464844
-0.020083,0.021717,0.201672,-1.342773,-0.610352,-2.746582
-0.045230,0.052479,0.177502,2.502441,-4.882812,-0.122070
-0.016421,0.028553,0.199963,-1.220703,5.004883,-2.197266
-0.035464,0.023670,0.188489,1.159668,-4.272461,-1.037598
-0.042300,0.013660,0.185071,-0.915527,1.159668,-1.220703
-0.001040,0.022938,0.209241,-0.854492,1.159668,-1.831055
-0.019595,0.042469,0.173352,-0.732422,-5.920410,-4.394531
-0.060611,0.024647,0.173840,-0.915527,2.136230,-5.310059
-0.007388,0.007313,0.206555,0.183105,-1.525879,-0.549316
-0.036441,0.043690,0.167981,0.366211,-1.770020,-2.075195
-0.037417,0.030018,0.180920,-1.281738,0.854492,-1.342773
-0.048159,0.020496,0.207532,9.887695,-3.845215,3.417969
-0.382388,-0.204846,0.083020,-3.356934,-52.307129,86.547852
0.144223,-0.009533,0.189953,-7.873535,33.935547,5.371094
0.115171,0.062977,0.376965,19.653320,37.780762,-11.657715
-0.049868,-0.091564,-0.094959,-30.578613,35.766602,-22.155762
-0.069644,-0.035412,0.358655,-21.057129,19.042969,9.338379
-0.061587,0.041004,0.495373,-1.220703,15.502930,2.197266
