ax,ay,az,gx,gy,gz
0.005596,0.024037,-0.083580,2.075195,-1.647949,-0.122070
0.001690,0.011342,-0.049157,1.220703,2.746582,0.732422
-0.005634,0.023793,-0.059166,1.403809,-3.234863,-2.868652
-0.015156,0.010365,-0.031334,1.525879,1.342773,2.807617
0.021954,0.004750,-0.071862,2.197266,-0.915527,-0.061035
-0.004902,0.035268,-0.027672,3.295898,2.685547,-0.854492
0.001934,0.007192,-0.046715,2.502441,0.427246,0.122070
-0.005390,-0.016002,-0.048912,2.868652,-0.061035,-0.183105
-0.013203,0.011586,-0.037438,1.403809,1.525879,-1.953125
-0.005390,0.009389,-0.050866,2.258301,-0.305176,-0.366211
-0.022236,0.010854,-0.037194,1.098633,0.427246,-1.464844
0.016094,0.002309,-0.053063,2.014160,0.549316,-0.610352
-0.013203,0.018178,-0.035241,1.708984,1.342773,-1.953125
-0.021504,0.016469,-0.027672,1.220703,1.098633,-1.098633
-0.002216,0.025258,-0.043297,1.525879,-0.488281,-1.831055
0.008770,0.012319,-0.021569,2.319336,9.582520,1.159668
-0.027851,0.025502,-0.023766,3.417969,-1.647949,2.258301
0.012676,0.002797,-0.064293,2.746582,-2.380371,-0.488281
-0.007099,0.015737,-0.048180,1.708984,1.342773,0.427246
0.010479,0.020131,-0.069176,3.723145,-0.793457,0.549316
-0.009541,0.017690,-0.038659,2.258301,1.037598,0.061035
-0.009785,0.007192,-0.051598,1.403809,-1.831055,0.183105
0.000225,0.038442,-0.037682,1.831055,-1.220703,0.793457
-0.010517,0.001088,-0.019371,2.319336,-0.488281,-0.549316
0.003399,0.017934,-0.032799,3.723145,-0.915527,-1.098633
-0.006123,0.010610,-0.034020,2.319336,-1.037598,-0.183105
-0.004902,0.001088,-0.058922,1.708984,1.220703,0.732422
-0.012959,0.012807,-0.024987,1.037598,2.075195,-1.098633
-0.012959,0.013539,-0.053307,2.929688,-4.333496,0.305176
-0.002216,0.025746,-0.054528,2.929688,0.183105,-0.610352
-0.019306,0.006947,-0.067223,1.831055,1.281738,-0.854492
-0.021992,-0.011607,-0.024010,1.586914,-2.258301,-0.061035
-0.011982,0.013051,-0.045495,1.098633,-0.732422,-0.671387
-0.014179,0.031850,-0.047692,1.953125,-0.122070,-1.159668
-0.013203,0.014760,-0.025231,1.037598,-0.732422,-0.122070
-0.004414,0.019154,-0.045006,2.014160,0.488281,-0.305176
-0.010029,0.017201,-0.010582,1.403809,-0.488281,0.488281
-0.012226,0.002797,-0.043053,1.892090,1.464844,-0.793457
-0.013203,0.006459,-0.042077,2.685547,-1.892090,0.793457
-0.010273,0.005971,-0.054284,2.624512,-1.037598,-0.061035
-0.006123,0.022572,-0.059655,1.525879,1.342773,-0.610352
-0.003437,0.020131,-0.050133,1.586914,-0.488281,0.854492
-0.004658,0.004506,-0.031334,1.770020,0.122070,-1.098633
-0.007343,0.008656,-0.052575,2.075195,1.525879,-0.976562
-0.021992,0.008901,-0.037438,2.197266,-0.732422,0.244141
-0.007832,0.003529,-0.040612,2.258301,0.244141,-0.793457
-0.021015,0.025746,-0.045006,1.708984,1.708984,0.305176
-0.011738,0.011586,-0.047936,2.624512,-0.183105,-0.061035
-0.000019,0.008901,-0.044762,2.197266,0.244141,0.000000
-0.007832,0.029408,-0.078698,1.770020,0.854492,-0.610352
0.004131,-0.004771,-0.037438,1.403809,-0.488281,-0.671387
-0.044697,0.013783,-0.048424,1.647949,0.671387,-0.366211
0.005840,0.011098,-0.036461,1.586914,-1.159668,-0.549316
-0.011494,0.014760,-0.062584,1.098633,0.488281,0.366211
-0.008808,0.002797,-0.022301,1.281738,1.464844,-0.671387
0.000957,0.008412,-0.016930,2.624512,-2.380371,-0.305176
0.010967,0.006703,-0.037682,1.281738,-0.671387,-0.732422
-0.004170,0.025990,-0.064049,1.525879,-0.671387,1.037598
-0.018330,0.016713,-0.032067,1.525879,-0.183105,-0.061035
-0.009296,0.007680,-0.066002,1.892090,-2.075195,-1.159668
-0.011494,0.011342,-0.061120,1.220703,1.831055,-0.793457
-0.040302,0.025014,-0.023034,1.403809,1.342773,1.037598
-0.001728,0.015248,-0.054528,2.258301,1.098633,0.549316
-0.009785,0.023061,-0.045983,1.525879,1.464844,0.122070
0.003399,0.005727,-0.048668,1.770020,1.586914,-0.122070
-0.022236,-0.000377,-0.024254,2.136230,0.854492,1.098633
-0.011250,0.017934,-0.037194,2.685547,1.953125,1.403809
-0.017841,0.020131,-0.052575,2.441406,0.976562,0.976562
-0.011738,0.023793,-0.033287,2.868652,0.427246,0.244141
-0.009296,0.002797,-0.052086,2.441406,-0.854492,-1.098633
-0.005879,-0.003551,-0.043053,2.014160,-0.122070,-0.549316
-0.005879,0.008168,-0.053551,1.586914,1.098633,-1.159668
-0.013447,0.012319,-0.033043,1.525879,-1.770020,1.281738
0.007793,0.011098,-0.039879,1.770020,1.098633,0.122070
-0.003925,0.032338,-0.073082,0.976562,-0.305176,-0.793457
-0.021748,0.032582,-0.021080,1.281738,-0.427246,0.122070
-0.000019,0.005238,-0.028405,1.953125,0.488281,0.671387
-0.029804,0.020131,-0.029625,2.258301,1.708984,0.000000
-0.016132,0.013051,-0.031823,1.953125,0.732422,-0.976562
-0.012226,0.004994,-0.018639,1.831055,-0.976562,-0.183105
-0.011250,0.001576,-0.048424,2.502441,-0.549316,0.305176
0.002911,0.015737,-0.074791,2.990723,0.488281,-0.122070
-0.019062,0.008656,-0.042321,1.892090,0.854492,0.183105
-0.007343,0.009633,-0.035485,1.525879,-2.075195,-0.244141
-0.006123,0.018178,-0.048424,1.647949,1.647949,-1.525879
-0.011250,0.004018,-0.028405,1.525879,0.549316,-0.854492
-0.016377,0.015737,-0.036217,1.708984,-2.380371,-0.305176
-0.011494,0.016469,-0.016198,1.525879,1.586914,-0.183105
-0.006611,0.023793,-0.042077,2.075195,0.000000,-0.061035
-0.001484,0.023549,-0.041344,2.197266,-0.854492,-1.098633
-0.022724,-0.004039,-0.056237,1.892090,-1.098633,-0.305176
-0.004902,0.037465,-0.046471,1.708984,0.061035,0.000000
-0.036884,0.016713,-0.050866,1.708984,0.915527,-0.671387
-0.019550,0.002797,-0.032067,1.647949,-1.037598,0.549316
-0.016377,0.020863,-0.053063,1.831055,1.220703,0.305176
-0.018818,0.022328,-0.051842,2.258301,0.427246,-0.305176
-0.014179,0.023793,-0.036461,1.342773,1.770020,0.122070
-0.009785,0.006947,-0.041832,2.441406,0.549316,0.549316
-0.014179,0.013783,-0.050133,1.342773,1.525879,-0.061035
-0.023212,0.010121,-0.026452,1.586914,0.427246,-0.061035
0.002911,0.014516,-0.034264,2.075195,1.220703,-0.549316
-0.005146,-0.005015,-0.065270,1.892090,-1.159668,0.183105
0.006084,0.012319,-0.086022,2.929688,0.732422,0.183105
-0.036884,0.015004,-0.014245,2.014160,2.319336,-1.098633
-0.020527,0.011586,-0.023522,2.014160,-2.502441,0.732422
-0.018086,0.013051,-0.018151,1.647949,1.403809,0.061035
-0.016132,-0.001109,-0.003502,1.831055,-0.244141,-0.488281
0.008038,0.009633,-0.087731,1.525879,-1.586914,0.122070
0.011944,0.013539,-0.090905,1.831055,0.610352,-0.122070
0.023907,0.002309,-0.062340,1.220703,-0.061035,0.061035
-0.038105,0.027455,-0.004479,2.563477,0.061035,0.366211
-0.017109,0.010121,-0.017418,1.953125,0.488281,0.488281
-0.022724,0.015981,-0.015709,2.380371,-0.671387,-0.671387
-0.039570,0.010854,-0.044274,1.647949,0.122070,-0.427246
-0.030781,0.006703,-0.055993,3.051758,-1.342773,0.427246
-0.001972,0.021352,-0.066002,1.953125,0.793457,0.915527
-0.010761,0.004994,-0.050621,1.831055,0.244141,-0.366211
-0.057880,0.005971,-0.034264,1.770020,3.356934,-1.403809
-0.045429,0.018910,0.000404,1.647949,0.305176,0.854492
-0.011738,0.022084,-0.028161,0.976562,-0.488281,1.098633
-0.006123,-0.002330,-0.037194,1.525879,0.061035,-0.305176
0.002911,0.008412,-0.084801,1.770020,-0.854492,-0.610352
-0.000019,0.013539,-0.087975,3.051758,0.854492,-2.502441
-0.008808,0.023549,-0.025963,2.136230,-1.647949,-1.220703
-0.042011,0.014760,0.006996,1.342773,2.136230,-0.915527
-0.039814,0.002553,0.005043,2.502441,-0.671387,0.000000
-0.026630,0.017690,-0.014245,1.098633,-1.098633,-1.586914
-0.020039,0.009877,-0.030358,1.831055,2.746582,0.488281
-0.007099,0.020131,-0.023522,2.319336,0.976562,0.122070
-0.008808,0.025258,-0.039391,2.136230,-0.976562,0.976562
-0.021748,0.034047,-0.024498,1.403809,1.586914,1.831055
-0.009541,0.007192,-0.021325,2.197266,0.671387,0.549316
-0.017597,0.025746,-0.055748,2.502441,-0.183105,0.244141
-0.027119,0.019887,-0.046227,1.892090,0.183105,-1.403809
-0.024677,0.005483,-0.047448,2.624512,1.892090,-2.197266
-0.038837,-0.000621,-0.033043,1.953125,1.037598,0.915527
-0.019062,0.024037,-0.016930,2.685547,1.159668,1.525879
-0.011982,0.013051,-0.036217,1.403809,-2.807617,-0.366211
-0.013447,0.016713,-0.022301,2.197266,1.953125,1.098633
0.031719,0.008656,-0.061852,2.197266,2.441406,1.037598
0.099590,-0.002086,-0.034264,3.356934,2.807617,-5.737305
0.189678,-0.011851,-0.045006,7.080078,6.225586,-9.765625
0.285381,-0.074107,-0.023522,2.380371,3.845215,-28.442383
0.379131,-0.069224,-0.012780,5.859375,-2.502441,-41.564941
0.447246,-0.065318,-0.081383,6.713867,-4.150391,-60.974121
0.426739,-0.110728,-0.073815,2.075195,-5.981445,-75.866699
0.449932,-0.139537,-0.063561,-3.112793,-12.817383,-94.299316
0.503155,-0.156383,-0.084557,-7.690430,-8.728027,-109.313965
0.568096,-0.142955,0.011634,1.342773,2.868652,-119.384766
0.624493,-0.111705,0.011879,-4.028320,15.197754,-127.807617
0.711651,-0.101451,0.046302,5.798340,12.878418,-133.483887
0.774151,-0.119517,0.000648,5.126953,12.023926,-149.658203
0.735577,-0.047496,0.064857,11.779785,30.090332,-152.404785
0.610821,0.094106,0.072425,16.723633,20.080566,-151.611328
0.666973,0.191518,-0.015953,12.634277,-5.310059,-143.676758
0.617657,0.382192,0.031654,11.596680,-28.137207,-132.324219
0.663311,0.487660,-0.069909,5.249023,-31.921387,-128.845215
0.499981,0.652699,-0.037682,8.239746,-26.489258,-116.333008
0.491192,0.799428,-0.110192,6.958008,-8.850098,-92.407227
0.520489,0.939321,-0.120690,0.061035,-31.738281,-67.016602
0.551739,1.008901,-0.037194,-5.187988,-11.901855,-30.151367
0.752422,0.956899,-0.108239,15.441895,-5.004883,-6.713867
0.790508,1.021108,-0.146813,-7.446289,-21.728516,-11.535645
0.766827,1.044545,-0.170983,-0.854492,8.300781,-2.746582
0.824688,1.029408,-0.206627,-10.131836,1.037598,15.686035
0.983135,0.917348,-0.235680,-13.122559,-0.671387,21.179199
1.016827,0.887807,-0.347985,-24.902344,-11.779785,9.216309
0.978741,0.876576,-0.516930,-24.719238,-20.202637,0.793457
0.927227,0.865834,-0.577721,-50.659180,-2.197266,7.629395
0.975567,0.796010,-0.407555,-74.401855,5.432129,9.277344
0.926250,0.785024,-0.262780,-75.744629,6.225586,9.338379
0.890362,0.782094,-0.261559,-78.979492,0.305176,13.610840
0.913067,0.768422,-0.225182,-90.393066,-2.075195,14.770508
0.896221,0.761830,-0.226403,-90.942383,-10.925293,28.381348
1.063702,0.666615,-0.178063,-111.633301,2.319336,30.517578
0.962139,0.666371,0.017005,-104.370117,20.996094,16.418457
0.924297,0.709096,-0.058678,-102.539062,-19.165039,21.057129
0.945782,0.759877,-0.109703,-118.774414,14.282227,28.381348
1.031231,0.701527,0.078041,-125.549316,46.386719,17.211914
0.978741,0.810658,0.219642,-107.666016,29.968262,15.258789
0.955547,0.885365,0.231117,-102.478027,26.794434,12.268066
0.934551,0.891225,0.238685,-85.510254,0.244141,22.521973
0.929913,0.944936,0.317787,-71.838379,15.197754,23.376465
1.082256,0.900990,0.251625,-49.438477,-1.098633,23.254395
1.029034,0.943959,0.245033,-32.287598,19.470215,15.136719
1.041485,0.962026,0.235755,-18.188477,15.502930,8.728027
1.019268,0.947133,0.175941,-8.361816,19.592285,5.493164
0.986065,0.917348,0.100746,5.920410,-7.751465,7.446289
1.039043,0.900014,-0.042565,4.150391,-7.934570,4.211426
0.947246,0.906361,-0.056481,6.652832,8.544922,0.305176
1.009746,0.863149,-0.083580,4.211426,-1.586914,7.263184
0.986553,0.900258,-0.017418,2.319336,7.507324,-3.295898
0.995098,0.846791,0.040931,9.826660,-2.685547,1.831055
0.968731,0.917592,-0.063561,13.183594,10.314941,-6.713867
0.947246,0.875111,0.006752,9.460449,9.765625,-2.807617
0.901348,0.920033,0.012855,4.638672,1.525879,0.854492
1.027813,0.918813,0.241127,18.188477,10.009766,6.408691
1.031231,0.927846,0.457679,30.639648,19.775391,-5.798340
1.041729,0.909291,0.617591,54.748535,-50.720215,-1.281738
1.009746,0.837026,0.504066,89.660645,10.864258,-14.526367
1.042950,0.744008,0.311683,112.365723,-44.067383,-12.695312
0.957989,0.725209,0.351478,118.835449,7.934570,-16.052246
1.008282,0.609731,0.183998,129.333496,-30.700684,-18.188477
1.042461,0.628529,0.188880,131.530762,-15.563965,-18.371582
1.018291,0.581410,0.031654,135.864258,-15.808105,-29.174805
0.908672,0.608266,0.013099,127.136230,-15.502930,-27.404785
0.913311,0.659779,-0.159996,127.258301,-10.314941,-26.550293
0.872784,0.706166,-0.188561,119.812012,-1.770020,-19.653320
0.919414,0.718861,-0.230553,106.018066,7.446289,-13.610840
0.803692,0.778676,-0.239586,92.224121,-16.784668,-10.864258
0.860088,0.754506,-0.545983,82.031250,-31.433105,-12.512207
0.979473,0.774770,-0.597741,61.157227,-16.723633,-5.065918
0.870586,0.872914,-0.465661,32.287598,25.451660,-7.751465
0.912090,0.903432,-0.412682,22.460938,-11.962891,0.183105
0.962871,0.920766,-0.326256,7.934570,-10.192871,1.831055
0.814434,0.976918,-0.239098,4.150391,1.892090,2.502441
0.811016,0.961537,-0.254235,-7.263184,4.699707,11.047363
0.700664,0.951528,-0.048668,-11.413574,20.202637,20.080566
0.510967,0.941029,-0.096764,-10.681152,13.244629,33.935547
0.589336,0.838002,0.044105,-18.859863,-21.911621,64.514160
0.409893,0.859486,-0.044518,-4.699707,4.333496,76.049805
0.654766,0.610219,-0.065758,-5.249023,-24.108887,97.412109
0.395000,0.632680,-0.015709,11.535645,48.217773,101.440430
0.744610,0.369008,-0.040123,1.770020,-56.274414,137.329102
0.535625,0.276235,-0.080407,3.112793,60.302734,135.375977
0.983135,-0.018932,0.169105,10.131836,-35.217285,161.315918
0.702373,0.015737,0.003334,11.169434,26.489258,135.131836
0.852276,-0.107799,0.142738,30.578613,-21.240234,147.705078
0.746807,-0.103648,-0.058922,27.160645,47.546387,112.915039
0.595196,-0.078258,0.174476,25.695801,55.908203,120.849609
0.627666,-0.126109,-0.038414,4.943848,-26.000977,104.431152
0.597393,-0.110728,-0.076500,-9.765625,9.704590,95.642090
0.524639,-0.078258,-0.045983,-15.808105,38.696289,93.933105
0.528301,-0.090221,-0.012536,-16.479492,15.258789,82.580566
0.506329,-0.053111,-0.064537,-9.216309,2.563477,64.697266
0.353496,-0.015758,-0.044274,-6.347656,43.762207,48.095703
0.343731,-0.017223,-0.067711,2.807617,14.221191,43.945312
0.284649,0.013783,-0.077965,-5.004883,21.240234,22.033691
0.205059,-0.025523,-0.007653,-3.173828,23.620605,9.765625
0.102520,-0.002818,0.025795,2.136230,21.789551,-5.187988
0.010235,0.011830,0.087318,7.568359,26.489258,-5.798340
0.015118,0.017201,0.019935,6.225586,-6.286621,-7.141113
0.030254,0.026235,-0.013024,6.530762,0.244141,-4.821777
0.057598,0.023793,-0.019616,4.211426,-5.920410,-7.263184
0.214580,0.005727,-0.003746,3.784180,-1.831055,-10.681152
0.449688,-0.036265,0.017005,6.225586,-18.188477,-20.019531
0.643536,-0.037974,-0.111168,3.967285,-8.056641,-54.504395
0.744366,-0.078014,0.070961,6.347656,1.403809,-80.139160
0.782696,-0.171764,0.067543,11.413574,-14.587402,-111.450195
0.745830,-0.188609,0.033363,11.596680,-21.911621,-138.916016
0.735821,-0.229137,-0.043053,2.380371,-32.104492,-148.864746
0.702618,-0.268932,0.067054,-3.051758,7.934570,-165.710449
0.681866,-0.158824,0.159339,5.554199,-19.836426,-158.630371
0.740948,-0.113902,-0.009118,-3.417969,-29.663086,-164.245605
0.625957,0.051625,0.070472,7.202148,-0.610352,-157.714844
0.655254,0.191762,-0.003746,13.366699,-4.089355,-144.897461
0.627178,0.363149,-0.027428,12.084961,-0.976562,-130.615234
0.645733,0.480092,-0.000573,6.530762,-11.413574,-102.905273
0.664043,0.574574,-0.067955,0.549316,-23.498535,-102.478027
0.612774,0.702992,-0.053063,2.197266,-36.499023,-90.759277
0.515850,0.844106,-0.090661,8.056641,-29.541016,-80.078125
0.465313,0.955678,-0.144371,0.366211,-30.761719,-52.734375
0.584942,0.990590,-0.154625,3.112793,-18.310547,-34.545898
0.604229,1.050404,-0.168297,-0.427246,-12.756348,-14.648438
0.684551,1.039906,-0.275475,-2.685547,-3.051758,-6.713867
0.763409,1.003285,-0.393639,-5.004883,-3.417969,8.666992
0.901592,0.965932,-0.576744,-21.911621,-11.962891,19.042969
0.915020,0.864613,-0.498131,-41.503906,15.258789,11.901855
0.831524,0.867055,-0.540856,-52.307129,-8.178711,16.845703
0.964336,0.769643,-0.516686,-76.171875,-0.061035,21.179199
0.857647,0.764760,-0.628258,-93.017578,-0.671387,24.169922
0.938702,0.665395,-0.388268,-124.328613,29.846191,30.334473
0.936504,0.639760,-0.203942,-131.835938,26.000977,27.282715
0.997539,0.588979,-0.084801,-137.756348,25.756836,27.282715
0.944561,0.618520,0.063636,-147.338867,16.113281,34.851074
0.956280,0.713246,0.227699,-140.014648,47.607422,23.559570
0.990948,0.679555,0.423988,-117.919922,18.249512,32.653809
0.960674,0.796986,0.347816,-102.844238,26.062012,21.850586
0.977520,0.884877,0.345131,-80.444336,29.663086,14.831543
1.009258,0.894154,0.493324,-60.058594,3.295898,25.268555
1.078106,0.954457,0.446205,-40.039062,9.521484,10.253906
1.162334,0.939565,0.360023,-15.563965,2.990723,10.192871
1.053203,0.973012,0.393959,0.793457,12.023926,2.197266
1.088604,0.913686,0.236000,14.404297,-23.132324,-0.915527
0.952373,0.953725,0.271644,28.259277,8.056641,-9.155273
0.989971,0.932729,0.223304,42.541504,-9.948730,-5.859375
1.002178,0.925649,0.258216,46.813965,-4.028320,-5.493164
1.061748,0.864613,0.223793,60.485840,-13.305664,-7.751465
0.976299,0.876576,0.369545,74.218750,3.479004,-9.765625
0.999493,0.785268,0.227699,85.998535,-26.916504,-13.549805
1.032696,0.769643,0.229896,99.731445,-15.869141,-16.296387
0.968487,0.740102,0.152748,109.252930,-19.470215,-22.644043
0.982159,0.681752,0.110755,118.835449,-19.592285,-17.150879
0.937969,0.729360,0.045570,118.286133,-16.601562,-23.010254
0.964580,0.704945,-0.045739,120.788574,-3.906250,-22.155762
0.933575,0.725453,-0.109948,115.600586,-22.460938,-14.648438
0.904034,0.781117,-0.252282,107.482910,1.647949,-25.146484
0.870342,0.798695,-0.265221,100.280762,-3.845215,-10.253906
0.933819,0.784535,-0.388756,81.420898,-10.131836,-11.169434
0.989483,0.775258,-0.420006,75.561523,-10.192871,-4.455566
0.875957,0.876820,-0.521325,51.757812,1.403809,-11.474609
0.917217,0.875844,-0.483239,36.499023,-10.009766,-0.122070
0.830791,0.948110,-0.377526,18.066406,-5.798340,-1.342773
0.715313,0.957875,-0.285485,9.460449,8.728027,5.493164
0.585918,0.952748,-0.241539,7.263184,7.629395,21.240234
0.581768,0.899770,-0.180260,1.464844,13.671875,37.292480
0.572246,0.858754,-0.066002,-1.098633,15.625000,51.574707
0.568340,0.739125,-0.040856,8.728027,-3.662109,62.133789
0.511455,0.728139,0.072914,5.371094,-2.136230,91.735840
0.625713,0.494740,-0.039879,26.916504,-12.634277,102.478027
0.766827,0.473256,-0.112389,6.469727,-13.366699,127.319336
0.700664,0.275990,0.031654,12.512207,62.622070,121.948242
0.780254,0.176137,0.090736,-4.089355,6.469727,156.738281
0.740459,0.036488,0.085365,1.525879,45.715332,135.437012
0.674541,-0.047740,0.151771,1.464844,17.761230,148.010254
0.730205,-0.150523,-0.069664,-3.906250,-11.474609,142.944336
0.616924,-0.172984,-0.023522,-24.536133,41.381836,135.742188
0.589092,-0.198131,0.060463,-26.794434,24.658203,146.240234
0.651104,-0.187144,-0.082116,-28.381348,17.211914,138.854980
0.594952,-0.173473,0.018226,-18.554688,42.053223,130.493164
0.597149,-0.138805,0.011879,-8.117676,14.221191,96.069336
0.459698,-0.049205,-0.076500,6.591797,18.066406,63.903809
0.383038,0.005727,-0.100426,2.075195,9.704590,44.982910
0.254375,0.041371,-0.005700,4.821777,21.118164,20.996094
0.242657,0.018910,-0.023766,2.746582,6.530762,6.286621
0.151348,-0.012096,0.042152,8.422852,34.729004,-13.488770
0.181866,-0.020640,0.046058,10.498047,0.305176,-21.911621
0.182598,0.001821,0.040443,15.258789,1.770020,-33.630371
0.235577,0.012319,-0.004235,16.418457,-13.732910,-40.100098
0.389385,-0.089976,0.066566,15.930176,-16.784668,-55.236816
0.321758,-0.087047,0.062904,22.583008,-6.469727,-74.645996
0.478496,-0.073863,0.084632,29.724121,-37.048340,-80.261230
0.678204,-0.138560,-0.057457,19.165039,-62.744141,-105.834961
0.806866,-0.169566,0.040687,12.207031,-32.409668,-128.723145
0.817364,-0.191783,0.014076,14.160156,-45.715332,-146.057129
0.901104,-0.187389,-0.076256,2.380371,-40.161133,-157.348633
0.802959,-0.180308,0.109779,-7.934570,-14.831543,-167.907715
0.825909,-0.104137,0.116371,0.122070,-30.944824,-161.682129
0.562969,0.057485,0.103187,-1.831055,11.352539,-161.743164
0.655254,0.190541,0.022132,0.122070,-38.635254,-132.934570
0.567852,0.345571,0.074134,-3.906250,-17.456055,-127.868652
0.597881,0.483754,-0.064049,4.394531,-46.508789,-102.355957
0.562969,0.590443,-0.182946,-7.324219,-26.855469,-104.553223
0.422832,0.777211,-0.113610,0.732422,6.530762,-79.406738
0.453594,0.893178,-0.107262,2.563477,5.920410,-49.621582
0.497051,0.973744,-0.111901,-4.211426,-24.475098,-24.169922
0.688946,0.957875,-0.146080,-2.624512,-22.155762,-12.573242
0.765606,0.994252,-0.192467,-1.647949,-9.704590,-5.065918
0.790752,1.026479,-0.273278,-4.089355,15.319824,-3.479004
0.899395,0.917104,-0.320153,-12.817383,-3.784180,7.690430
0.967998,0.930043,-0.444909,-26.306152,-14.282227,7.995605
0.974346,0.840199,-0.446862,-33.142090,9.216309,5.065918
0.927959,0.862660,-0.458092,-48.278809,-5.615234,2.746582
0.823223,0.853627,-0.438561,-55.236816,3.601074,6.408691
0.854717,0.768422,-0.534752,-70.800781,-18.127441,12.817383
0.844952,0.745961,-0.490075,-94.421387,14.892578,23.864746
0.924541,0.641469,-0.362389,-112.915039,-1.770020,23.254395
0.952129,0.585561,-0.337975,-129.089355,16.174316,25.268555
0.849102,0.644154,-0.112877,-141.357422,60.241699,17.639160
0.966778,0.576527,0.106849,-152.648926,12.207031,34.118652
0.932598,0.617299,0.345863,-144.165039,42.236328,20.568848
1.034160,0.712514,0.287269,-114.501953,-2.197266,23.986816
0.960674,0.759633,0.341224,-120.666504,41.992188,17.456055
0.823711,0.900502,0.510170,-95.275879,50.170898,18.920898
1.074200,0.875844,0.406166,-71.716309,-3.356934,19.226074
1.062725,0.964223,0.464515,-36.499023,4.394531,18.005371
1.003643,1.013295,0.548744,-19.531250,7.263184,13.122559
1.116924,0.983266,0.445228,5.798340,1.281738,8.239746
1.040996,0.963735,0.547523,21.911621,-2.075195,4.699707
1.115215,0.916615,0.464515,47.485352,-4.943848,-3.540039
1.040020,0.879750,0.453529,73.242188,-21.911621,-7.019043
1.022930,0.821645,0.331703,92.651367,-14.282227,-11.840820
1.017803,0.743520,0.271644,103.881836,-34.851074,-11.169434
0.931377,0.723744,0.177650,109.924316,1.831055,-20.690918
1.014629,0.659535,0.125892,114.501953,-57.556152,-12.695312
1.020000,0.694936,0.095863,117.431641,-13.305664,-19.958496
1.025127,0.580190,-0.029137,128.967285,-29.663086,-27.160645
0.910625,0.654408,0.043861,123.962402,-3.417969,-28.015137
0.873272,0.686147,-0.110680,132.202148,-4.272461,-26.367188
0.890362,0.675160,-0.192223,118.957520,6.469727,-21.789551
0.913555,0.724965,-0.180748,108.642578,16.235352,-15.136719
0.899151,0.752553,-0.266686,100.280762,12.512207,-8.056641
0.897930,0.773549,-0.550621,82.275391,-23.132324,-11.169434
0.913799,0.815541,-0.645348,59.387207,-3.967285,-6.652832
0.862286,0.895375,-0.513512,34.545898,-9.338379,-1.464844
0.912579,0.902699,-0.501061,12.512207,-13.793945,6.835938
0.891094,0.903188,-0.287926,-8.850098,5.615234,9.094238
0.842510,0.917836,-0.202965,-7.934570,2.197266,12.512207
0.834698,0.912465,-0.112145,-18.737793,1.403809,18.310547
0.710674,0.910024,-0.027184,-7.141113,25.939941,23.742676
0.757549,0.852651,-0.010094,-9.155273,-10.314941,35.156250
0.631573,0.844594,-0.066735,4.272461,1.464844,37.475586
0.734356,0.780141,-0.111901,-4.211426,-18.127441,56.396484
0.495586,0.723744,0.017005,6.896973,22.094727,57.861328
0.669659,0.602651,0.016517,4.699707,-30.761719,94.116211
0.542217,0.486196,-0.059166,19.226074,37.170410,94.787598
0.567852,0.445424,0.135658,0.244141,9.765625,132.690430
0.569073,0.160512,-0.038659,12.756348,3.051758,138.671875
0.550030,0.113881,0.157630,10.314941,35.522461,167.175293
0.672588,-0.103648,-0.055504,3.784180,-22.583008,176.696777
0.666729,-0.178355,0.081459,-7.385254,50.903320,181.091309
0.738506,-0.298717,-0.062096,-26.062012,-33.020020,165.649414
0.822979,-0.307994,0.052406,-14.221191,81.909180,152.343750
0.760723,-0.235728,0.065345,-12.207031,42.907715,114.868164
0.589825,-0.148326,-0.013268,-6.958008,43.273926,98.632812
0.524639,-0.076793,0.021156,-15.380859,22.521973,69.030762
0.448223,-0.071666,0.061683,2.197266,2.014160,47.607422
0.304668,0.009633,-0.056725,11.962891,-5.859375,28.442383
0.238995,0.025746,-0.090661,8.728027,3.479004,10.192871
0.202129,0.029164,-0.057946,3.234863,20.446777,3.540039
0.174053,0.030629,-0.014245,1.464844,17.822266,-8.178711
0.125957,0.000112,0.044105,8.361816,4.028320,-12.695312
0.202618,0.043080,-0.009362,6.042480,-6.652832,-24.719238
0.384502,-0.049205,0.027504,13.244629,0.305176,-32.958984
0.409161,-0.032359,0.086097,13.183594,10.742188,-56.213379
0.526836,-0.042125,0.132484,19.653320,-12.695312,-68.054199
0.576397,-0.134898,0.023597,24.841309,-24.475098,-95.520020
0.701885,-0.145885,0.021644,12.878418,-26.794434,-110.595703
0.716778,-0.179088,0.110511,14.831543,-17.456055,-131.713867
0.723858,-0.179332,0.015297,12.817383,-35.278320,-142.211914
0.792461,-0.182750,0.045326,3.234863,-29.663086,-153.259277
0.759014,-0.150279,0.111732,10.253906,-9.338379,-156.555176
0.767559,-0.006969,0.083412,14.709473,-17.578125,-155.700684
0.783184,0.053334,-0.003502,11.352539,7.690430,-156.005859
0.688946,0.239613,0.094154,16.967773,18.615723,-142.822266
0.703106,0.356313,0.120277,23.559570,6.225586,-116.821289
0.625469,0.520375,0.046791,15.136719,-35.400391,-104.614258
0.645245,0.626332,-0.112389,6.408691,-55.541992,-95.642090
0.543438,0.742299,-0.059899,-5.615234,-24.047852,-92.590332
0.491680,0.894399,-0.057457,-4.760742,-45.349121,-64.758301
0.468731,0.996938,-0.073571,-1.953125,-26.306152,-47.485352
0.553204,1.051625,-0.107506,-5.798340,-36.193848,-19.287109
0.644024,1.059438,-0.079918,-7.751465,-16.906738,-13.854980
0.729473,1.068715,-0.191735,-2.136230,-7.751465,1.403809
0.796612,1.028920,-0.237145,-8.239746,-12.939453,7.751465
0.901348,0.971791,-0.404381,-11.657715,-12.451172,19.226074
0.933819,0.888783,-0.616784,-17.150879,-16.296387,12.817383
0.834209,0.899770,-0.738121,-40.222168,-10.925293,17.028809
0.921612,0.760365,-0.660973,-76.477051,-14.099121,25.085449
0.817120,0.791127,-0.457116,-90.393066,3.356934,27.343750
0.949932,0.683461,-0.368248,-106.506348,-20.568848,36.743164
0.830791,0.651967,-0.245934,-106.933594,1.525879,31.677246
0.991436,0.667836,-0.294274,-119.812012,-31.799316,57.250977
1.001934,0.602162,-0.122155,-141.418457,50.170898,39.306641
1.076641,0.615590,0.101478,-135.437012,65.429688,28.686523
0.937725,0.690541,0.157142,-132.202148,72.265625,9.582520
0.954571,0.815785,0.219154,-120.056152,48.645020,8.239746
0.920879,0.818227,0.345131,-104.370117,19.653320,21.667480
0.952862,0.880727,0.369789,-92.346191,27.954102,15.869141
1.089580,0.904164,0.541420,-59.143066,16.479492,19.409180
1.024395,0.989858,0.431556,-33.691406,6.164551,5.126953
1.005352,0.991811,0.469642,-14.404297,2.258301,7.812500
1.001934,0.965444,0.421058,4.760742,1.892090,5.187988
0.978252,0.981313,0.539222,33.020020,6.469727,8.178711
1.077618,0.916860,0.523109,56.274414,-24.963379,4.455566
1.079327,0.859731,0.415687,87.707520,-9.216309,-8.056641
1.044170,0.833363,0.341713,101.196289,-18.737793,-8.789062
0.971905,0.773549,0.258705,108.947754,6.347656,-17.761230
0.980694,0.685170,0.232582,119.750977,-17.395020,-9.765625
0.931377,0.690785,0.235267,126.892090,3.479004,-9.887695
1.022686,0.578725,0.021644,130.065918,-44.433594,-14.160156
0.927959,0.664906,0.029945,126.525879,-4.760742,-10.620117
0.957500,0.666127,-0.227379,126.586914,-30.212402,-16.113281
0.909649,0.672231,-0.217125,111.938477,-1.098633,-10.803223
0.945049,0.689809,-0.374352,103.881836,-7.324219,-17.333984
0.838360,0.782338,-0.427330,95.642090,-6.225586,-9.216309
0.860332,0.805531,-0.590905,71.411133,-10.192871,-14.160156
0.887188,0.838490,-0.492760,47.790527,-28.869629,3.173828
0.738995,0.897817,-0.445641,25.756836,3.784180,1.892090
0.698467,0.875356,-0.276452,18.127441,-22.521973,20.629883
0.549297,0.891225,-0.307213,8.605957,-3.662109,28.198242
0.478741,0.842641,-0.185143,0.793457,-7.690430,51.452637
0.505596,0.763539,-0.118737,0.000000,9.704590,68.847656
0.516582,0.541371,0.118568,-4.577637,-8.666992,91.186523
0.563213,0.484731,0.080970,16.357422,-1.525879,104.248047
0.748028,0.334584,-0.034264,26.855469,-75.012207,125.305176
0.577373,0.292836,-0.183678,26.184082,30.822754,124.572754
0.620342,0.142690,0.021156,26.062012,66.833496,161.376953
0.667217,0.017934,-0.097008,-5.493164,24.414062,172.851562
0.777813,-0.138560,0.056312,-13.610840,81.909180,172.424316
0.657696,-0.230113,0.090736,-37.902832,21.911621,162.414551
0.597393,-0.276988,0.081703,-17.883301,79.284668,166.076660
0.705547,-0.276744,0.003822,-28.137207,-13.977051,149.841309
0.864727,-0.310191,-0.093834,0.183105,35.827637,114.868164
0.693096,-0.132701,0.038978,-1.708984,48.767090,63.171387
0.493389,-0.042369,-0.064782,11.962891,29.907227,35.766602
0.331036,0.018666,-0.036217,6.835938,-4.150391,21.545410
0.275860,0.052846,-0.045739,3.356934,-12.207031,11.291504
0.316875,0.016713,0.044593,2.624512,6.530762,-3.540039
0.256573,0.037465,0.070228,12.084961,-13.977051,-16.723633
0.342510,-0.012584,0.034095,7.629395,-11.779785,-30.761719
0.317608,0.023305,0.094642,18.310547,8.728027,-43.457031
0.507061,-0.058482,0.020179,20.751953,-35.339355,-58.349609
0.512676,-0.080211,-0.002770,20.446777,-2.136230,-77.636719
0.563702,-0.071910,0.069496,18.371582,-23.986816,-90.515137
0.690899,-0.147105,-0.008141,21.118164,-45.410156,-105.712891
0.744610,-0.150767,-0.019860,13.732910,-26.916504,-126.098633
0.690411,-0.106578,0.055336,9.155273,-11.718750,-140.625000
0.651348,-0.073131,0.067543,2.197266,-23.681641,-143.554688
0.681866,-0.042857,0.116615,5.798340,-14.831543,-140.075684
0.646221,0.129994,0.059242,9.826660,-3.662109,-138.183594
0.680645,0.219350,0.024818,4.882812,-13.427734,-128.479004
0.699688,0.357533,0.048500,9.094238,-0.793457,-115.234375
0.734844,0.463735,0.021888,5.249023,-19.836426,-102.539062
0.770733,0.512563,-0.031334,6.774902,-22.216797,-94.543457
0.747784,0.671498,-0.015709,1.525879,-16.174316,-83.740234
0.847881,0.697865,0.000404,0.061035,-11.779785,-76.660156
0.763897,0.791127,-0.034996,3.173828,-24.536133,-73.303223
0.723858,0.848988,-0.087243,2.380371,-30.700684,-59.936523
0.624737,0.949574,-0.079430,-0.305176,-21.179199,-48.278809
0.563946,1.008412,-0.105797,-5.310059,-32.775879,-27.526855
0.728252,0.997426,-0.166344,-8.728027,-25.878906,-14.709473
0.735332,1.041371,-0.170983,-4.211426,8.850098,-14.099121
0.786602,1.006947,-0.213219,-1.953125,-2.258301,-3.417969
0.804913,1.007192,-0.393395,-8.605957,-1.770020,2.807617
0.903545,0.932973,-0.536217,-19.042969,-13.977051,13.732910
0.970196,0.874135,-0.645836,-43.884277,-7.446289,14.282227
0.938213,0.868031,-0.485924,-65.795898,-15.136719,16.784668
0.974102,0.790883,-0.405846,-84.533691,-12.573242,16.113281
0.884014,0.838979,-0.330162,-83.679199,8.911133,9.765625
0.917461,0.787709,-0.235680,-94.116211,16.845703,15.258789
0.876446,0.785756,-0.196373,-100.097656,3.051758,21.545410
0.849590,0.804555,-0.177330,-125.183105,20.324707,19.775391
1.029522,0.736684,-0.004479,-129.455566,5.676270,38.391113
0.967022,0.747426,0.120765,-132.263184,38.879395,25.695801
0.917950,0.834340,0.322914,-123.901367,18.249512,26.672363
1.055157,0.829213,0.273841,-99.487305,-13.916016,30.029297
0.960186,0.929799,0.327797,-84.716797,2.685547,25.634766
1.053448,0.908803,0.290931,-60.668945,20.019531,15.075684
0.959454,1.003041,0.423256,-48.034668,13.244629,17.517090
1.094219,1.010854,0.371986,-25.817871,10.986328,12.695312
1.131084,1.014027,0.392006,4.455566,0.183105,6.408691
1.029278,0.994740,0.356361,20.019531,6.347656,-3.784180
1.032207,0.986684,0.361732,42.358398,-3.540039,-0.915527
1.030010,0.933217,0.262123,53.466797,-17.333984,-6.530762
1.040508,0.883168,0.235511,71.533203,-2.563477,-9.765625
0.976299,0.855580,0.232093,79.956055,-3.845215,-13.122559
1.056377,0.793080,0.141273,88.256836,-31.677246,-14.831543
0.913555,0.835072,0.176185,98.937988,15.686035,-15.808105
0.981426,0.764760,0.104408,104.431152,-34.301758,-15.258789
0.969952,0.724233,0.051185,111.816406,8.789062,-16.418457
0.940166,0.730336,-0.006676,115.600586,-29.113770,-11.535645
0.992657,0.751576,-0.153161,113.342285,-6.286621,-16.113281
1.047588,0.718373,-0.255455,107.666016,-18.920898,-20.568848
0.946026,0.725453,-0.279869,99.670410,20.629883,-26.184082
0.896465,0.812367,-0.426354,92.346191,1.159668,-23.559570
0.853008,0.905629,-0.505700,73.303223,-11.474609,-16.784668
0.853741,0.907094,-0.504723,48.645020,-5.981445,-4.028320
0.823955,0.906117,-0.337975,29.479980,-10.009766,1.770020
0.640850,0.942738,-0.326744,23.620605,1.281738,7.568359
0.582745,0.884877,-0.189537,20.324707,-23.132324,29.541016
0.559307,0.875844,-0.187340,18.493652,-1.586914,38.330078
0.603741,0.764272,-0.159020,15.747070,-23.864746,55.786133
0.533672,0.736928,-0.099694,23.132324,14.343262,68.908691
0.614727,0.612904,-0.106041,19.836426,-17.517090,95.947266
0.591534,0.523549,0.017982,15.258789,8.117676,113.281250
0.756573,0.366078,-0.142907,25.146484,-2.441406,126.037598
0.667217,0.309194,0.010902,18.127441,60.424805,137.939453
0.849590,0.109975,-0.073815,13.610840,37.109375,147.277832
0.748760,0.087270,0.041175,-3.662109,82.458496,143.127441
0.669414,-0.063609,0.037269,-20.874023,32.043457,141.906738
0.685284,-0.135875,0.220863,-9.521484,131.713867,150.390625
0.691875,-0.182262,0.014808,-37.780762,8.544922,134.460449
0.584942,-0.187389,0.077064,-39.855957,30.212402,139.099121
0.688946,-0.218639,0.049232,-33.813477,12.817383,138.488770
0.749981,-0.197642,0.051185,-16.967773,9.582520,104.431152
0.505596,-0.041881,0.156898,5.798340,6.958008,56.579590
0.333477,0.052113,-0.056725,21.484375,-27.770996,42.053223
0.374493,0.040639,-0.166100,10.559082,-36.621094,23.803711
0.331524,0.012563,-0.021569,2.441406,18.554688,-0.732422
0.303204,0.021596,0.030433,1.586914,-0.183105,-18.249512
0.295879,0.002309,0.090736,5.249023,2.746582,-30.090332
0.290020,0.027944,0.107826,13.671875,2.746582,-42.114258
0.485088,-0.005992,0.053382,21.789551,-19.042969,-52.551270
0.538067,-0.091685,0.019691,14.038086,-2.746582,-81.665039
0.645977,-0.173473,0.013832,20.996094,-1.220703,-104.309082
0.567852,-0.120006,0.107338,28.198242,2.441406,-119.689941
0.624737,-0.110484,0.038246,24.353027,-33.935547,-129.699707
0.707500,-0.065318,0.085121,13.183594,-29.479980,-130.371094
0.804668,-0.055308,0.099037,10.437012,-38.696289,-127.502441
0.824444,-0.026012,0.119056,-2.624512,-35.888672,-142.333984
0.819317,0.024770,0.100990,3.051758,-23.803711,-144.287109
0.724834,0.152455,0.029945,-1.586914,-31.188965,-139.526367
0.711407,0.250600,-0.016686,-7.263184,-26.733398,-127.685547
0.699200,0.382192,0.061439,-7.080078,-14.221191,-111.755371
0.727520,0.472035,0.027992,0.610352,-19.775391,-102.111816
0.675762,0.605092,-0.035485,0.793457,-18.066406,-98.388672
0.681133,0.732533,-0.063073,5.859375,-16.357422,-77.209473
0.638164,0.792104,-0.072350,-1.464844,-21.789551,-67.871094
0.622784,0.906361,-0.125084,4.638672,-25.390625,-58.227539
0.610577,0.981313,-0.180748,-4.211426,-10.009766,-49.560547
0.550030,1.086049,-0.121178,-1.525879,4.821777,-24.963379
0.685284,1.024526,-0.201012,-7.263184,-22.827148,-7.324219
0.712627,1.071889,-0.330162,-5.737305,-0.610352,-0.854492
0.824200,0.994985,-0.437828,-18.798828,3.112793,12.390137
0.893291,0.971547,-0.397789,-35.583496,3.112793,16.052246
0.863018,0.947133,-0.414879,-40.466309,11.169434,16.235352
0.975567,0.843861,-0.426110,-59.204102,-2.502441,25.085449
0.939678,0.817738,-0.356041,-69.519043,5.981445,17.578125
0.922100,0.767690,-0.385094,-79.650879,-2.746582,22.338867
0.899639,0.734975,-0.362633,-95.092773,12.268066,21.362305
0.959209,0.675160,-0.264733,-119.140625,10.925293,26.611328
0.902325,0.728871,-0.036217,-128.906250,35.156250,26.428223
0.939922,0.712026,0.097084,-130.187988,17.822266,30.334473
1.042950,0.707143,0.261146,-117.431641,14.343262,28.442383
1.054668,0.782094,0.329994,-109.497070,-33.386230,16.723633
1.124493,0.840688,0.292152,-80.261230,-1.098633,27.648926
1.108135,0.916127,0.292152,-67.626953,22.094727,6.469727
0.922588,0.996938,0.400795,-48.889160,22.277832,11.169434
1.034160,1.032826,0.328041,-25.329590,9.399414,4.028320
1.049053,1.009633,0.313392,-6.164551,-0.976562,6.591797
1.084698,0.982533,0.318031,12.145996,15.869141,-0.061035
1.052227,0.985707,0.332435,31.921387,7.080078,-1.586914
1.140606,0.904897,0.292640,48.095703,-26.062012,-2.441406
1.011211,0.901967,0.210121,63.110352,-1.281738,-17.639160
0.987530,0.909779,0.228431,71.899414,-7.263184,-17.761230
0.943340,0.858754,0.167152,88.195801,-13.488770,-14.404297
0.962139,0.839467,0.147377,92.773438,-16.784668,-14.648438
0.912090,0.788930,0.078285,98.510742,-15.319824,-11.901855
1.026836,0.779164,0.038246,98.693848,-29.479980,-8.972168
0.959209,0.781850,-0.064782,98.327637,11.169434,-17.639160
1.014141,0.725453,-0.054528,103.149414,-25.085449,-11.718750
0.910381,0.818227,-0.152184,94.543457,11.596680,-16.357422
0.918926,0.802602,-0.114098,96.008301,-1.525879,-5.981445
1.021221,0.751820,-0.315026,85.998535,-13.122559,-16.052246
0.930645,0.814320,-0.345543,80.871582,27.709961,-22.521973
0.908428,0.844350,-0.294518,66.406250,-2.746582,-8.300781
0.938457,0.846547,-0.433190,52.307129,-6.896973,-10.620117
0.873516,0.899037,-0.372643,36.682129,-3.234863,-4.516602
0.860821,0.883412,-0.315758,22.949219,-9.765625,0.244141
0.762676,0.879506,-0.257409,22.949219,-8.728027,0.732422
0.626446,0.898549,-0.251549,17.944336,1.159668,6.591797
0.564434,0.866567,-0.113854,14.038086,1.098633,20.324707
0.486553,0.831166,-0.139245,21.362305,15.258789,36.499023
0.412334,0.753285,-0.063561,10.375977,26.977539,60.852051
0.516827,0.640736,-0.036705,6.652832,-3.784180,98.449707
0.568340,0.592641,-0.062584,2.563477,7.751465,114.013672
0.834209,0.296254,-0.069176,-8.666992,-4.028320,146.606445
0.757061,0.236684,0.049720,-0.122070,82.397461,138.000488
0.699200,0.130238,0.140297,-9.277344,33.020020,166.625977
0.804424,-0.074107,0.106361,-15.136719,79.833984,171.325684
0.837383,-0.163463,0.287513,-20.202637,68.420410,166.687012
0.633526,-0.121959,0.042396,-31.127930,13.000488,152.526855
0.548077,-0.150767,0.120033,-41.809082,36.071777,167.602539
0.675030,-0.242808,0.054847,-37.536621,-2.441406,149.658203
0.687725,-0.237926,0.111244,-24.963379,12.573242,123.168945
0.671856,-0.194224,0.134925,-6.713867,27.526855,79.528809
0.459942,-0.072642,0.094886,23.559570,15.441895,47.790527
0.311993,0.050649,-0.041344,8.422852,5.554199,24.353027
0.392071,0.021108,-0.040612,8.056641,-16.845703,18.188477
0.406231,0.004018,-0.004723,2.746582,7.873535,-9.094238
0.457745,-0.024303,0.047523,7.080078,1.464844,-29.541016
0.606914,-0.043101,0.108070,11.108398,-6.164551,-51.940918
0.646465,-0.072154,0.152015,17.944336,-20.263672,-84.655762
0.732647,-0.138316,0.152992,21.362305,-34.912109,-108.886719
0.754131,-0.232310,0.053871,25.390625,-33.691406,-142.944336
0.764873,-0.276500,-0.009850,19.470215,-26.916504,-158.813477
0.657452,-0.234019,0.051185,11.779785,-2.685547,-167.602539
0.707012,-0.169322,0.048744,11.657715,-21.240234,-165.893555
0.687237,-0.079478,0.076088,-0.366211,-6.652832,-160.278320
0.701641,0.068959,0.071205,10.192871,-11.657715,-153.320312
0.743145,0.209096,0.012855,3.295898,-26.916504,-139.221191
0.714580,0.311879,-0.000328,-6.225586,-8.972168,-133.361816
0.601299,0.507192,0.064125,4.821777,-20.446777,-107.177734
0.698223,0.531117,0.037025,-10.681152,-25.756836,-99.975586
0.634014,0.682485,0.061683,-0.854492,-16.113281,-90.209961
0.547100,0.801869,-0.002770,6.652832,-23.681641,-72.448730
0.539288,0.914418,-0.058678,6.774902,-14.831543,-55.419922
0.590801,1.006459,-0.113121,0.793457,-34.240723,-43.395996
0.564678,1.057240,-0.072106,4.699707,-6.225586,-24.291992
0.735088,1.027211,-0.216149,-3.173828,-20.629883,-6.835938
0.778545,1.052846,-0.205895,-4.882812,4.028320,-3.723145
0.817852,1.038197,-0.331871,-10.314941,-10.131836,7.324219
0.909161,0.978139,-0.409264,-26.000977,-14.465332,17.944336
0.994121,0.902455,-0.444420,-33.081055,-9.033203,16.052246
0.937969,0.891225,-0.538903,-47.241211,-12.878418,15.869141
0.919170,0.812123,-0.493004,-66.711426,10.070801,10.498047
0.822246,0.804799,-0.432213,-85.693359,-0.854492,14.099121
0.896709,0.757436,-0.306237,-92.224121,9.887695,21.484375
0.954571,0.752797,-0.343346,-112.487793,-3.601074,25.085449
0.959942,0.752797,-0.025231,-129.028320,48.156738,22.644043
0.975079,0.760121,0.159339,-127.502441,13.122559,24.841309
0.988506,0.826283,0.234779,-119.628906,7.873535,27.587891
1.117412,0.741322,0.224281,-108.825684,7.080078,25.085449
0.920635,0.899526,0.287025,-92.285156,30.151367,15.747070
1.022930,0.917592,0.220863,-83.129883,18.432617,13.061523
0.990704,0.962758,0.453773,-59.020996,27.648926,12.023926
0.932110,1.028676,0.447914,-32.043457,3.845215,13.305664
1.074200,0.988149,0.310218,-10.070801,-9.033203,11.108398
1.006084,1.019643,0.300209,1.281738,7.873535,7.568359
1.086895,0.991567,0.337318,15.075684,1.098633,5.493164
1.061993,0.985707,0.354896,31.860352,-2.868652,1.770020
1.115703,0.908070,0.342201,46.386719,-23.986816,-5.737305
1.019268,0.904897,0.343177,68.542480,-9.277344,-11.596680
1.055157,0.851186,0.224525,82.946777,-41.320801,-14.892578
0.973370,0.829945,0.226234,94.970703,-15.686035,-20.751953
0.966778,0.796254,0.220619,106.872559,-11.352539,-20.202637
0.994854,0.757192,0.111000,116.516113,-26.489258,-18.859863
0.918682,0.742055,0.014564,121.887207,-13.977051,-23.742676
0.881573,0.722279,-0.089928,122.802734,-18.676758,-16.967773
0.960186,0.747914,-0.207116,114.562988,-4.699707,-22.399902
0.907207,0.785024,-0.259606,107.543945,20.690918,-20.568848
0.986309,0.769399,-0.374840,92.468262,-4.089355,-15.747070
0.906231,0.805776,-0.492516,79.711914,-6.164551,-13.732910
0.855938,0.846547,-0.513024,59.631348,1.159668,-7.202148
0.790264,0.857289,-0.495690,42.724609,-4.577637,-3.295898
0.616680,0.899770,-0.278405,29.357910,5.920410,2.136230
0.423565,0.908803,-0.139489,26.916504,-1.831055,15.686035
0.475811,0.777211,-0.094323,28.259277,-12.512207,47.546387
0.513409,0.812611,-0.151207,30.944824,-2.807617,64.392090
0.595684,0.664906,-0.173912,16.174316,-14.465332,85.449219
0.574688,0.638783,-0.094567,15.563965,-6.713867,117.065430
0.788311,0.408315,-0.136315,6.286621,19.653320,126.403809
0.716045,0.406362,0.048988,15.075684,64.331055,140.563965
0.833721,0.131459,-0.038903,-7.568359,6.713867,148.681641
0.790264,0.029408,0.107093,-0.671387,69.396973,147.705078
0.715069,-0.078990,0.110755,-4.943848,53.405762,146.057129
0.600323,-0.095592,0.072670,-12.512207,87.158203,153.503418
0.626690,-0.201549,0.128334,-23.559570,30.822754,161.193848
0.619610,-0.207408,0.001869,-25.085449,-3.601074,161.499023
0.732647,-0.253551,-0.058922,-26.184082,-21.118164,145.324707
0.746319,-0.191051,-0.066735,-18.066406,12.878418,104.614258
0.619366,-0.110728,0.033363,-10.314941,36.987305,64.697266
0.536114,-0.003307,0.025795,2.075195,6.408691,32.043457
0.492413,0.074819,-0.002526,3.295898,-1.403809,8.605957
0.517803,0.061879,-0.043541,1.708984,-4.821777,-13.305664
0.501202,0.049916,0.041420,3.906250,1.098633,-36.010742
0.516827,-0.016246,0.054359,7.202148,-16.052246,-55.847168
0.575664,-0.110728,0.071937,11.596680,-22.521973,-76.721191
0.666241,-0.191051,0.038978,24.719238,-20.019531,-105.224609
0.677227,-0.236217,0.117836,30.212402,-12.512207,-131.713867
0.653545,-0.200084,0.023109,31.127930,-32.775879,-151.184082
0.685772,-0.179332,-0.036217,28.198242,-15.319824,-153.564453
0.694805,-0.065562,-0.061364,9.887695,-20.996094,-153.808594
0.734356,-0.044078,0.042640,17.639160,-4.699707,-145.690918
0.670147,0.087026,0.050453,12.512207,-16.418457,-134.826660
0.628155,0.245229,0.036048,17.089844,-8.117676,-124.633789
0.715557,0.349965,0.040931,1.464844,-26.855469,-111.450195
0.727032,0.483510,-0.016686,2.380371,-8.972168,-107.543945
0.745586,0.608510,-0.002770,-6.835938,-33.996582,-93.688965
0.820782,0.663686,-0.068200,-12.695312,-25.573730,-81.848145
0.813946,0.716420,-0.011559,-15.014648,-27.404785,-76.110840
0.720440,0.793813,0.000892,-8.422852,-23.254395,-64.880371
0.531719,0.944203,-0.140465,1.770020,-2.014160,-49.316406
0.586651,0.960317,-0.088463,-20.324707,-15.808105,-28.259277
0.661846,0.942983,-0.063805,-9.704590,-24.414062,-25.146484
0.652569,1.018422,-0.132164,-3.417969,-0.244141,-13.244629
0.748272,0.992055,-0.365075,-0.244141,-10.192871,-4.089355
0.749737,0.992543,-0.489830,-13.000488,14.099121,8.911133
0.874981,0.907094,-0.607506,-40.100098,-11.291504,18.249512
0.849590,0.850453,-0.560387,-55.114746,14.343262,17.761230
0.904766,0.748158,-0.506432,-84.777832,-3.662109,27.404785
0.902813,0.675649,-0.347985,-101.074219,11.474609,23.620605
0.922588,0.689565,-0.266930,-118.103027,-18.554688,28.381348
1.000469,0.626576,-0.286461,-133.361816,-26.855469,39.001465
1.055889,0.608022,-0.033776,-145.263672,36.987305,35.034180
0.981426,0.650014,0.192787,-142.578125,29.663086,17.150879
1.003643,0.657338,0.117347,-133.178711,2.746582,24.536133
0.922588,0.769887,0.297523,-131.958008,19.592285,17.822266
0.991924,0.866322,0.294105,-106.872559,-17.944336,25.939941
1.088116,0.898061,0.416664,-79.956055,21.179199,29.113770
1.070537,0.975453,0.458412,-52.673340,0.915527,21.179199
1.079815,1.051381,0.404457,-23.681641,12.573242,13.671875
1.070049,1.044057,0.497963,3.295898,13.610840,9.826660
1.097881,0.998891,0.438148,26.489258,5.371094,2.075195
1.078350,0.946156,0.464027,52.429199,7.690430,-3.173828
1.044170,0.890492,0.417640,78.125000,-8.972168,-10.375977
1.080303,0.831654,0.239662,100.341797,-13.488770,-10.925293
1.020244,0.785024,0.222328,105.773926,-9.948730,-17.578125
1.055401,0.711781,0.152992,116.027832,-17.150879,-18.493652
0.921368,0.690053,0.092689,120.300293,-2.380371,-19.836426
0.951153,0.677846,0.022621,118.652344,-9.765625,-17.761230
0.980450,0.651967,-0.058922,123.901367,-20.751953,-13.061523
0.967754,0.633168,-0.158776,113.159180,-24.597168,-21.606445
0.922344,0.677846,-0.252282,111.145020,-7.385254,-22.216797
0.890362,0.713979,-0.372155,100.708008,-19.592285,-22.827148
0.942852,0.715199,-0.496666,88.745117,-34.912109,-12.329102
0.817608,0.839223,-0.622887,65.307617,-1.525879,-23.071289
0.827129,0.841664,-0.536950,46.508789,-20.446777,-11.596680
0.679668,0.909291,-0.380211,28.686523,2.563477,-4.455566
0.623760,0.886342,-0.319176,25.207520,-14.038086,13.000488
0.510479,0.898305,-0.224450,16.235352,-11.291504,29.418945
0.569805,0.773549,-0.187096,18.920898,-8.178711,41.809082
0.433086,0.771108,-0.068932,22.033691,-1.770020,60.668945
0.504131,0.617787,-0.166832,22.705078,-15.319824,86.181641
0.442364,0.533559,0.025062,18.737793,13.061523,119.079590
0.678204,0.285512,-0.126793,27.587891,-24.780273,137.573242
0.588604,0.180531,0.016029,37.536621,64.636230,159.423828
0.619121,0.024526,-0.149010,14.770508,31.005859,168.640137
0.673321,-0.077525,0.067787,5.249023,56.518555,199.035645
0.760479,-0.208629,-0.169274,-19.531250,12.695312,183.288574
0.701397,-0.313609,-0.008629,-34.484863,110.534668,182.495117
0.720928,-0.363414,0.091713,-38.513184,47.363281,172.912598
0.813213,-0.420055,0.027992,-30.273438,23.010254,142.761230
0.718731,-0.250865,0.059486,-7.995605,24.902344,96.740723
0.536358,-0.068492,-0.017907,19.470215,-14.892578,51.696777
0.359600,0.041615,-0.146813,14.099121,-1.342773,34.790039
0.335674,0.098256,-0.119469,10.803223,23.986816,16.418457
0.437481,0.008656,-0.006432,-2.014160,7.873535,4.089355
0.435284,-0.019908,0.043129,9.216309,12.268066,-26.428223
0.536114,0.004994,-0.019371,20.812988,-11.352539,-46.447754
0.679180,-0.102916,-0.104821,19.104004,-13.183594,-81.481934
0.637676,-0.176402,-0.003014,11.352539,-3.662109,-113.403320
0.779034,-0.254527,0.044105,15.991211,-20.080566,-137.695312
0.765362,-0.299205,0.021644,19.897461,-24.475098,-163.330078
0.706768,-0.254039,-0.009606,13.061523,-25.573730,-175.598145
0.727520,-0.228404,-0.066491,5.981445,-16.174316,-177.673340
0.682598,-0.090221,0.006996,2.624512,-13.366699,-163.879395
0.664776,0.022817,0.037513,-3.295898,-42.236328,-158.142090
0.585918,0.209828,-0.035485,-12.573242,-64.453125,-132.873535
0.768780,0.219106,-0.059166,-22.766113,-20.202637,-127.075195
0.603985,0.423451,-0.009606,-9.094238,7.324219,-126.892090
0.539288,0.583852,-0.086754,7.324219,1.831055,-106.445312
0.492168,0.749379,-0.126305,3.112793,-9.826660,-75.561523
0.469463,0.839467,-0.095787,5.554199,-27.709961,-51.818848
0.551495,0.876576,-0.159264,0.000000,-31.555176,-34.667969
0.571514,0.906117,-0.259606,5.065918,-9.216309,-27.282715
0.582500,0.943715,-0.373864,-3.906250,-5.004883,-8.605957
0.684307,0.921010,-0.474694,-24.047852,1.281738,6.591797
0.842266,0.874623,-0.557946,-33.996582,-17.395020,18.310547
0.886455,0.832387,-0.584069,-50.415039,-3.173828,20.568848
0.912579,0.820424,-0.461022,-71.899414,7.385254,25.390625
0.963116,0.782338,-0.294274,-83.129883,-6.408691,28.015137
0.926250,0.786733,-0.232506,-81.909180,14.038086,23.559570
0.984356,0.766713,-0.276696,-81.176758,-9.277344,26.000977
0.902569,0.749379,-0.349694,-97.290039,18.920898,24.963379
0.906719,0.717641,-0.273766,-106.140137,15.136719,29.541016
0.932598,0.671742,-0.214684,-120.666504,20.385742,32.592773
0.863262,0.719106,-0.061852,-119.812012,33.386230,31.738281
0.924786,0.684926,0.053382,-107.299805,17.517090,41.076660
0.972149,0.786488,0.085121,-103.820801,34.301758,27.526855
1.044659,0.728871,0.189369,-87.585449,24.353027,27.038574
0.986309,0.893422,0.180580,-68.542480,54.565430,13.488770
0.968731,0.900746,0.236000,-56.762695,13.916016,22.644043
1.023907,0.955678,0.276771,-45.654297,1.281738,27.770996
1.082744,0.987660,0.311195,-30.395508,21.728516,12.145996
1.071758,0.990346,0.404213,-2.746582,14.892578,10.986328
1.105450,0.900502,0.444496,19.531250,5.554199,5.126953
1.107403,0.900258,0.430580,47.363281,-13.488770,-2.624512
1.104229,0.813588,0.288002,67.810059,-12.451172,-13.305664
1.014873,0.836293,0.355140,87.280273,-2.258301,-17.150879
1.046368,0.733510,0.295326,103.454590,-34.545898,-15.930176
1.006328,0.692494,0.181556,111.145020,-11.840820,-29.418945
0.992657,0.602651,0.230629,127.929688,-27.893066,-20.996094
0.966534,0.586537,0.052406,129.821777,-31.860352,-31.188965
0.971416,0.558705,-0.131920,136.657715,-34.545898,-36.926270
0.841289,0.624867,-0.197106,125.732422,-0.244141,-35.034180
0.825420,0.653676,-0.348229,113.159180,-4.150391,-29.907227
0.866680,0.714223,-0.403405,98.327637,-10.437012,-13.732910
0.849346,0.754994,-0.357018,83.374023,10.925293,-11.474609
0.932598,0.725453,-0.531090,72.387695,-38.452148,-6.713867
0.784649,0.839955,-0.497643,54.443359,-7.019043,-9.765625
0.767559,0.840688,-0.514977,36.437988,-24.902344,4.272461
0.667461,0.856557,-0.332604,20.385742,8.056641,7.873535
0.604229,0.816274,-0.261071,22.399902,-8.544922,23.254395
0.527325,0.860707,-0.156334,18.615723,-8.300781,39.306641
0.597637,0.714711,-0.284752,23.376465,-50.903320,59.326172
0.540996,0.674672,-0.185875,15.380859,18.859863,66.894531
0.483623,0.598744,-0.037926,15.380859,21.423340,99.426270
0.591534,0.458608,-0.050133,3.967285,8.361816,111.755371
0.505108,0.289906,0.093910,16.662598,31.188965,137.451172
0.643780,0.108998,-0.120934,13.732910,-9.094238,151.306152
0.532940,0.049916,-0.033287,15.258789,90.820312,168.212891
0.563946,-0.190562,-0.024010,-3.356934,55.664062,192.687988
0.578106,-0.387584,0.027992,-20.996094,51.330566,201.354980
0.676250,-0.439830,0.034584,-24.536133,12.512207,204.162598
0.746807,-0.469127,-0.030114,-15.991211,-4.333496,175.415039
0.775860,-0.315807,-0.047203,-4.211426,10.925293,133.544922
0.577862,-0.146129,-0.053063,5.371094,6.164551,88.745117
0.542705,-0.042125,-0.056237,9.643555,6.408691,57.617188
0.520000,0.054067,-0.125817,5.126953,10.437012,18.066406
0.550274,0.020375,-0.022057,2.197266,16.967773,-11.596680
0.531963,-0.015269,-0.000084,5.920410,9.826660,-46.081543
0.595440,-0.081187,0.066810,18.554688,8.666992,-73.974609
0.649151,-0.196422,-0.003991,20.446777,-30.029297,-108.642578
0.594463,-0.265269,0.019203,20.507812,3.417969,-137.878418
0.699932,-0.340709,-0.039635,19.653320,-20.874023,-156.738281
0.689190,-0.384898,0.021400,13.122559,7.324219,-180.053711
0.701153,-0.351451,-0.044762,16.662598,-32.531738,-187.194824
0.622295,-0.224986,0.081459,13.427734,12.145996,-182.006836
0.628155,-0.045055,0.066322,11.352539,-40.405273,-173.156738
0.709209,0.097035,-0.047203,9.155273,-17.883301,-160.705566
0.630352,0.254262,0.032142,2.502441,29.479980,-152.038574
0.582989,0.346547,0.151771,8.911133,-6.652832,-129.638672
0.445782,0.540151,0.075111,14.099121,-25.085449,-118.225098
0.377666,0.706410,-0.017907,17.211914,-52.734375,-88.012695
0.375713,0.804555,-0.200768,14.160156,-57.312012,-58.837891
0.429668,0.891957,-0.341149,-2.441406,-50.170898,-35.095215
0.512432,0.916371,-0.444176,-17.211914,-11.840820,-13.305664
0.741436,0.869496,-0.468102,-35.766602,-5.004883,7.751465
0.809307,0.866567,-0.425621,-48.156738,-6.713867,17.395020
0.848370,0.833119,-0.432457,-66.528320,-9.277344,25.573730
0.855694,0.747182,-0.308190,-77.209473,-0.305176,26.428223
0.864727,0.723744,-0.282799,-86.059570,-17.578125,38.513184
0.956036,0.747914,-0.128991,-83.251953,-0.427246,36.926270
0.965313,0.715688,-0.299889,-79.345703,-12.145996,32.775879
1.010967,0.710805,-0.164635,-94.421387,29.479980,37.536621
1.019268,0.707875,-0.223229,-105.773926,38.574219,20.324707
0.975079,0.693471,-0.227868,-110.229492,27.343750,25.024414
0.964336,0.651479,-0.137780,-125.061035,67.504883,14.892578
0.914776,0.662709,0.094886,-126.037598,33.264160,28.259277
0.947979,0.693715,0.166908,-120.788574,47.058105,16.052246
0.964825,0.702748,0.349037,-96.801758,9.521484,31.433105
0.972881,0.799916,0.235267,-84.411621,24.169922,14.221191
0.927959,0.869496,0.336830,-64.697266,35.705566,10.925293
0.989483,0.900014,0.396400,-44.250488,7.690430,17.639160
1.082989,0.912221,0.411537,-24.536133,12.512207,9.582520
1.039776,0.949330,0.478920,1.525879,-2.197266,3.906250
1.039776,0.922963,0.481117,24.108887,3.417969,-0.610352
1.030987,0.889516,0.424720,48.461914,-10.131836,-3.356934
1.060528,0.825063,0.407386,72.143555,-14.282227,-6.958008
1.020489,0.772328,0.334388,86.853027,-26.123047,-12.512207
0.969219,0.717152,0.231361,104.980469,-7.263184,-16.479492
0.953350,0.632436,0.264320,111.022949,-28.625488,-11.230469
0.957500,0.605336,0.128578,123.046875,-20.019531,-18.493652
0.955059,0.590932,0.099525,127.746582,-30.883789,-16.601562
0.946514,0.582387,-0.067711,128.906250,-30.822754,-22.094727
0.905498,0.624379,-0.135582,124.389648,-14.587402,-23.193359
0.892559,0.646352,-0.170006,112.915039,-6.408691,-21.972656
0.873028,0.665151,-0.180993,102.783203,-7.568359,-14.709473
0.977520,0.653188,-0.216881,94.421387,-21.240234,-13.671875
0.857891,0.739858,-0.301598,93.261719,2.929688,-21.667480
0.911602,0.706899,-0.474694,78.613281,-64.636230,-6.408691
0.752178,0.758412,-0.506676,55.603027,-14.465332,-14.465332
0.648663,0.803090,-0.323327,50.781250,-26.428223,5.493164
0.626446,0.773793,-0.373619,36.010742,-16.967773,12.512207
0.551739,0.795033,-0.199303,28.564453,-7.629395,33.142090
0.481670,0.757680,-0.181237,28.015137,16.845703,48.645020
0.439678,0.727162,-0.112145,19.165039,-1.953125,82.763672
0.616924,0.581166,-0.210778,8.728027,-12.145996,107.177734
0.713604,0.430287,-0.056481,3.540039,7.385254,133.728027
0.759991,0.324574,-0.055504,9.399414,72.692871,125.305176
0.866924,0.144887,0.086586,1.831055,7.873535,150.939941
0.849590,0.059926,-0.086022,-3.234863,-4.760742,139.953613
0.769756,-0.015514,0.031166,7.202148,31.799316,138.244629
0.681621,-0.039683,-0.072106,-4.577637,17.333984,127.136230
0.625225,-0.077037,0.136634,-2.807617,44.555664,129.943848
0.592022,-0.086314,0.016029,5.126953,9.948730,125.122070
0.557110,-0.052623,-0.047203,-4.028320,-5.798340,118.652344
0.560039,-0.087779,-0.095543,-8.239746,-7.873535,104.614258
0.584209,-0.114390,-0.092370,-11.169434,1.281738,83.557129
0.470440,-0.073131,-0.045983,-0.183105,19.592285,58.715820
0.365704,-0.042125,-0.042077,11.291504,8.178711,42.114258
0.261455,0.017446,-0.094811,1.831055,20.629883,11.291504
0.182354,-0.000621,-0.025963,0.671387,13.488770,6.896973
0.150371,0.031606,-0.017907,2.685547,6.347656,-0.793457
0.121563,-0.009410,0.001625,2.258301,11.291504,-5.371094
0.049053,0.019154,0.026039,5.920410,-2.258301,-3.295898
0.078106,0.009389,0.008949,7.263184,-12.329102,-7.568359
0.047344,0.026967,-0.047203,7.324219,-24.963379,-8.361816
0.074932,0.023549,-0.027428,5.065918,-3.906250,-4.211426
0.043682,0.019399,-0.009850,7.385254,-1.647949,-2.014160
0.050518,0.010610,-0.029137,2.502441,-9.216309,-2.685547
0.081768,0.023549,-0.057213,4.333496,-4.028320,-3.417969
0.083965,0.011098,-0.037194,-1.098633,7.263184,-2.807617
0.062969,0.023061,0.004798,2.563477,13.122559,-1.831055
0.069317,0.016713,-0.022789,1.525879,-3.479004,-1.586914
0.080303,0.007192,-0.011315,0.610352,-5.432129,0.000000
0.089580,0.011586,-0.022789,2.990723,-4.516602,0.366211
0.100079,-0.005748,-0.025963,-1.098633,1.586914,-1.647949
0.056133,0.017690,0.031654,2.319336,5.981445,-2.502441
0.089092,0.034535,-0.035241,1.586914,-6.591797,0.488281
0.066387,0.011342,-0.031578,3.295898,-1.708984,-1.831055
0.077373,0.020131,-0.015953,0.671387,-0.488281,0.366211
0.085674,0.012807,-0.029381,2.868652,-4.089355,3.051758
0.099102,0.016957,-0.026207,2.258301,-1.342773,0.854492
0.087871,0.011098,-0.021569,1.342773,-0.976562,-1.403809
0.101788,0.002553,0.001136,0.000000,-4.333496,-1.159668
0.094707,0.025746,-0.040123,1.220703,-1.708984,-1.770020
0.078838,0.025746,-0.026696,1.586914,0.671387,-1.892090
0.072002,0.003041,-0.029381,0.305176,-3.112793,-0.976562
0.095684,0.019154,-0.018151,1.586914,-3.417969,0.061035
0.095440,0.018910,-0.042809,0.427246,-3.356934,-1.403809
0.093243,0.016957,-0.025231,0.488281,-1.831055,-0.061035
0.075420,0.034535,-0.004967,0.915527,-0.793457,-1.159668
0.053448,0.031117,-0.037926,3.662109,-3.662109,2.014160
0.046123,0.025258,-0.047692,0.549316,-7.934570,5.981445
0.054668,0.017934,-0.034508,0.183105,0.061035,2.685547
0.060528,0.050404,-0.059411,-5.798340,-9.216309,5.371094
0.098125,0.016469,-0.081871,0.061035,2.868652,3.784180
0.088848,0.027699,-0.021325,-2.441406,7.385254,-1.098633
0.097881,0.016713,-0.051354,-1.647949,3.417969,-2.197266
0.088116,0.018666,-0.027916,-0.122070,0.549316,-2.502441
0.098614,0.001332,-0.053307,1.159668,0.854492,-4.760742
0.062481,0.026235,-0.028649,2.441406,2.563477,-2.746582
0.092754,0.017201,-0.093102,-2.441406,1.831055,-2.502441
0.069317,0.010610,-0.048668,-0.732422,7.934570,-1.770020
0.090557,0.025258,-0.069420,-2.014160,2.868652,-4.272461
0.087139,0.018178,-0.046959,-0.061035,-1.770020,-2.685547
0.068584,0.013783,-0.038903,-3.723145,-3.173828,-1.220703
0.119366,0.028432,-0.039635,-1.342773,1.037598,-1.586914
0.071026,0.022572,-0.081627,1.525879,-0.915527,-2.014160
0.097149,-0.002330,-0.054039,0.976562,4.394531,0.854492
0.107403,0.034291,-0.053551,-0.488281,0.244141,-1.953125
0.115948,0.030141,-0.032311,5.371094,0.427246,-2.197266
0.060772,0.034535,-0.068688,4.028320,1.464844,-1.220703
0.097393,0.015981,-0.060143,6.469727,1.525879,-0.244141
0.112774,0.060903,-0.209069,8.361816,5.371094,-6.774902
0.104473,-0.001598,-0.068932,12.145996,0.122070,-2.319336
0.104229,0.032338,-0.054772,13.305664,-2.136230,-2.868652
0.084209,0.025258,-0.044030,5.432129,-6.408691,-3.234863
0.071758,0.043813,-0.002526,-0.671387,-0.915527,2.624512
0.079082,0.032582,0.020179,-4.882812,-4.272461,1.770020
0.098614,-0.014049,-0.080162,1.098633,14.648438,12.573242
