ax,ay,az,gx,gy,gz
-0.140086,0.033438,0.020623,-8.605957,-2.136230,35.095215
-0.140330,0.045401,0.040398,-10.498047,-1.647949,30.578613
-0.155222,0.037589,0.049675,-8.666992,-1.525879,32.958984
-0.127390,0.041983,0.015740,-11.047363,-6.408691,33.325195
-0.156931,0.014151,0.018914,-10.437012,-1.098633,32.287598
-0.132762,0.036368,-0.002082,-11.352539,-5.493164,34.912109
-0.174510,0.048331,0.024773,-11.108398,-0.732422,33.020020
-0.124949,0.009024,0.031121,-9.582520,-1.892090,32.104492
-0.158396,0.034659,0.004753,-10.559082,-2.990723,32.775879
-0.140818,0.031973,0.042595,-10.742188,-0.549316,34.484863
-0.173777,0.050772,-0.006721,-11.779785,-2.746582,34.301758
-0.126902,0.018301,0.024529,-10.314941,2.868652,34.423828
-0.153269,0.047842,0.055046,-11.901855,-7.995605,33.630371
-0.155955,0.036612,0.022332,-10.131836,2.441406,32.409668
-0.138621,0.024405,0.025017,-9.460449,-2.563477,33.203125
-0.145457,0.020743,0.028679,-9.704590,-3.417969,33.203125
-0.153758,0.041739,0.018669,-10.498047,0.549316,30.334473
-0.146922,0.024893,0.036980,-10.131836,-3.417969,33.203125
-0.147898,0.033438,0.007439,-9.033203,-2.868652,32.348633
-0.165232,0.055167,0.019402,-8.117676,-2.197266,31.799316
-0.175486,0.016348,-0.002082,-10.314941,-1.403809,32.287598
-0.161570,0.042227,0.033074,-9.521484,0.122070,31.250000
-0.142527,0.013419,0.050652,-11.413574,-2.746582,35.461426
-0.156931,0.063467,0.020378,-9.338379,-3.784180,30.822754
-0.157664,0.045889,0.030388,-9.399414,0.061035,34.362793
-0.122263,0.040274,0.015252,-10.620117,-4.943848,33.630371
-0.157420,0.044913,0.015740,-9.521484,-3.967285,31.738281
-0.126902,0.022452,-0.000862,-10.925293,-1.708984,33.386230
-0.145457,0.022940,0.025017,-9.826660,-2.624512,32.653809
-0.134471,0.041495,0.004753,-10.864258,-5.187988,32.714844
-0.164500,0.029532,0.039177,-8.728027,-2.136230,34.179688
-0.168162,0.025870,0.040398,-10.375977,-2.807617,32.348633
-0.105174,0.041251,0.019646,-10.009766,-3.417969,32.714844
-0.169627,0.037344,0.037957,-10.498047,-2.990723,32.958984
-0.132029,0.044180,0.025994,-11.230469,0.122070,30.273438
-0.146678,0.033438,0.015984,-11.840820,-2.563477,31.188965
-0.139597,0.050040,0.028191,-9.765625,-0.488281,34.118652
-0.163767,0.043204,0.030877,-9.399414,-5.187988,33.935547
-0.143992,0.045401,0.015007,-9.948730,-2.075195,30.822754
-0.133982,0.048819,0.032586,-9.826660,-4.455566,33.203125
-0.138377,0.039053,0.016961,-10.498047,-1.586914,32.714844
-0.149119,0.047354,0.034050,-9.521484,-3.967285,32.775879
-0.142527,0.043204,0.016961,-10.559082,0.610352,32.165527
-0.152781,0.076651,0.052849,-8.972168,-2.868652,33.752441
-0.143504,0.026602,-0.004768,-10.009766,-4.150391,31.799316
-0.128855,0.029532,0.038201,-9.643555,0.488281,35.217285
-0.155222,0.048575,0.017205,-11.169434,-3.967285,33.386230
-0.141306,0.007315,0.034783,-10.986328,1.342773,32.958984
-0.170603,0.030264,0.035027,-10.375977,-3.356934,33.508301
-0.134715,0.019522,0.039177,-11.108398,1.159668,32.043457
-0.155222,0.020010,0.059685,-9.033203,-5.371094,34.362793
-0.163523,0.050772,0.019890,-10.864258,-0.061035,31.494141
-0.133494,0.036124,0.033562,-11.474609,-3.112793,33.569336
-0.164744,0.038321,0.005730,-8.666992,-4.211426,33.691406
-0.146433,0.032706,0.023796,-9.582520,-1.464844,33.386230
-0.148875,0.044424,0.028679,-8.728027,-5.432129,31.799316
-0.166697,0.042227,0.021111,-10.375977,-2.014160,32.409668
-0.154490,0.033682,0.016472,-10.253906,-1.037598,32.226562
-0.144969,0.019034,0.008416,-11.047363,-3.662109,33.020020
-0.151560,0.049307,0.018914,-11.230469,-3.479004,32.348633
-0.136668,0.025870,0.013054,-9.704590,0.610352,33.447266
-0.177683,0.023917,0.077996,-10.559082,-4.516602,33.203125
-0.143260,0.026358,0.025505,-11.657715,-1.525879,30.883789
-0.142039,0.028311,0.051628,-10.253906,-0.244141,33.325195
-0.159617,0.046866,0.015007,-8.361816,-5.554199,31.311035
-0.149119,0.036612,0.032830,-9.216309,-0.061035,31.066895
-0.164012,0.047842,0.021355,-7.995605,-5.371094,32.897949
-0.150340,0.044669,0.006218,-9.948730,-1.403809,30.151367
-0.163767,0.035880,0.038933,-9.765625,-2.807617,34.790039
-0.173045,0.050528,0.021355,-10.620117,-3.356934,32.470703
-0.142283,0.017813,0.025750,-10.131836,-3.967285,34.973145
-0.129344,0.028311,0.011589,-11.169434,-5.371094,30.883789
-0.145457,0.016348,0.053582,-13.183594,2.075195,33.203125
-0.127146,0.059317,0.049431,-11.596680,-2.807617,32.470703
-0.138133,0.024161,0.046502,-9.338379,-6.835938,34.790039
-0.117381,0.050528,0.042595,-10.498047,0.244141,30.090332
-0.156687,0.045401,0.038689,-8.178711,-6.774902,31.005859
-0.149851,0.026114,0.047478,-9.216309,-2.075195,31.738281
-0.148387,0.050040,0.032341,-10.681152,-5.187988,32.897949
-0.146189,0.045157,0.023064,-9.887695,-4.943848,32.958984
-0.128611,0.029044,0.021355,-10.009766,-2.746582,32.775879
-0.151316,0.060294,0.025017,-11.291504,-2.807617,33.996582
-0.121775,0.025626,0.019646,-8.728027,-2.868652,32.531738
-0.146433,0.047354,0.028435,-10.864258,-1.525879,34.301758
-0.145945,0.027823,0.042107,-9.338379,-4.272461,30.578613
-0.110789,0.030753,0.050652,-9.033203,-3.295898,35.339355
-0.174754,0.047110,0.036248,-12.451172,-1.831055,29.113770
-0.097605,0.041739,0.024285,-9.643555,-4.455566,35.034180
-0.146189,0.030753,0.046257,-12.268066,1.220703,30.639648
-0.140574,0.026358,0.042595,-8.850098,-5.310059,31.982422
-0.150340,0.034659,0.005974,-10.925293,0.549316,31.127930
-0.158152,0.030508,0.031853,-7.812500,-4.028320,32.348633
-0.127146,0.046133,0.007683,-10.253906,-1.708984,31.921387
-0.135691,0.032950,0.029168,-10.131836,-4.150391,33.874512
-0.138865,0.030508,-0.017219,-9.765625,-2.563477,31.066895
-0.134226,0.036124,0.022087,-10.009766,-4.455566,34.423828
-0.148142,0.028555,0.044548,-9.826660,-2.380371,31.738281
-0.146189,0.036612,0.019646,-9.765625,-2.929688,34.179688
-0.138865,0.028555,0.015007,-12.512207,-5.798340,31.127930
-0.139597,0.024161,-0.005989,-8.789062,-4.394531,34.301758
-0.150340,0.023917,0.031121,-10.742188,0.671387,29.174805
-0.108347,0.049551,0.003289,-9.094238,-1.586914,32.165527
-0.159861,0.059317,0.018181,-9.826660,-3.417969,30.334473
-0.129099,0.029288,0.042107,-10.559082,-4.272461,33.630371
-0.099070,0.024405,0.041863,-9.277344,-5.981445,31.188965
-0.146433,0.035147,0.040886,-9.582520,1.098633,30.212402
-0.130564,0.030508,0.029656,-7.995605,-1.647949,30.151367
-0.144236,0.047110,-0.009163,-9.582520,-3.295898,30.456543
-0.151316,0.042227,0.046502,-8.239746,-1.892090,33.447266
-0.134715,0.041983,0.049431,-10.437012,-6.286621,31.555176
-0.159861,0.037589,0.027703,-10.253906,-2.807617,33.264160
-0.168162,0.042960,0.076043,-11.047363,-4.638672,31.066895
-0.117625,0.052481,0.003533,-9.521484,-2.807617,34.851074
-0.154002,0.027090,0.036492,-10.314941,-3.906250,35.461426
-0.183787,0.028311,0.042595,-10.803223,-2.746582,35.461426
-0.093455,0.020010,0.030388,-9.399414,-2.624512,36.499023
-0.162058,0.030997,0.011589,-10.009766,-4.638672,34.423828
-0.121531,0.050284,-0.009895,-9.338379,0.915527,31.982422
-0.146922,0.023673,0.016228,-8.239746,-3.906250,35.583496
-0.161814,0.031729,0.036736,-9.765625,-2.929688,34.606934
-0.120555,0.043936,0.043084,-10.009766,1.892090,30.639648
-0.169871,0.031973,0.003777,-8.605957,-3.356934,35.339355
-0.140818,0.023184,0.046013,-9.521484,-2.929688,32.226562
-0.139353,0.047110,0.030388,-9.033203,-2.685547,33.447266
-0.134226,0.050284,0.036492,-9.704590,-2.990723,34.240723
-0.148875,0.014395,0.031609,-11.169434,-1.037598,32.775879
-0.156443,0.019766,0.041619,-10.864258,-4.699707,34.362793
-0.137156,0.030020,0.007927,-9.094238,-1.464844,33.691406
-0.131785,0.042471,0.018181,-8.789062,-4.821777,31.799316
-0.122263,0.032217,0.035759,-11.230469,-3.112793,32.714844
-0.164744,0.034171,0.037957,-9.338379,-2.990723,31.433105
-0.137156,0.031241,0.038689,-10.681152,-1.770020,33.020020
-0.157664,0.050284,0.015007,-11.840820,-4.577637,33.935547
-0.164256,0.043448,0.039910,-11.291504,-0.122070,33.691406
-0.133006,0.013907,0.057732,-10.803223,-4.089355,31.982422
-0.104930,0.037833,0.023064,-10.559082,-2.563477,31.921387
0.057668,-0.052255,0.050652,-12.817383,-9.094238,35.827637
0.275442,-0.105966,-0.007454,-0.183105,14.221191,11.535645
0.383596,-0.161386,0.037957,-9.521484,-9.094238,-17.517090
0.361135,-0.245126,0.020623,6.347656,48.767090,-53.466797
0.342336,-0.233408,0.117791,4.211426,44.189453,-78.979492
0.329885,-0.282968,0.164666,4.638672,5.310059,-91.308594
0.484182,-0.339121,0.124627,-1.647949,-31.982422,-100.708008
0.478567,-0.318124,0.183709,-1.281738,-3.051758,-131.958008
0.380910,-0.276865,0.209099,13.366699,-12.207031,-137.695312
0.440237,-0.185556,0.132927,2.380371,-58.410645,-138.732910
0.467092,-0.064218,0.038689,-3.601074,-36.132812,-144.653320
0.467580,0.039053,0.039177,-6.530762,-21.972656,-132.629395
0.425344,0.229483,0.032586,-1.953125,-3.540039,-121.643066
0.502737,0.377432,0.010369,-8.544922,-29.418945,-98.205566
0.556692,0.455313,0.039910,-13.122559,-16.540527,-83.129883
0.548391,0.617667,0.031609,-9.155273,-7.629395,-74.157715
0.472219,0.754385,-0.016487,-10.925293,-9.399414,-56.640625
0.456594,0.823965,0.062859,-6.164551,1.281738,-27.770996
0.556692,0.886710,0.036492,-2.990723,-4.516602,-3.662109
0.631643,0.933829,0.035271,-2.868652,22.155762,8.178711
0.731008,0.938467,0.019402,2.258301,-17.211914,36.560059
0.846731,0.875479,-0.079963,-0.061035,-18.615723,37.292480
0.914358,0.878897,-0.148811,-1.159668,-5.310059,43.945312
0.931203,0.801504,-0.366340,-19.042969,-29.296875,40.527344
0.987844,0.733878,-0.650032,-44.921875,-42.297363,48.828125
0.943410,0.650626,-0.648567,-82.763672,-2.258301,47.119141
0.833059,0.635001,-0.601692,-110.473633,-10.986328,52.612305
0.863332,0.544180,-0.496467,-133.361816,5.920410,62.438965
0.829641,0.437003,-0.390754,-144.470215,62.683105,59.509277
0.769094,0.387198,-0.209114,-161.437988,43.884277,61.828613
0.846731,0.303458,-0.195686,-182.617188,-12.207031,75.744629
0.868459,0.268057,-0.071663,-164.855957,88.867188,69.519043
0.879934,0.271964,0.076775,-169.372559,96.801758,69.458008
0.860647,0.336417,0.281365,-150.939941,111.145020,41.015625
0.831350,0.408926,0.347283,-163.330078,17.150879,46.752930
0.846731,0.463370,0.268425,-129.760742,52.734375,45.776367
0.887014,0.473868,0.275261,-112.731934,88.989258,45.471191
0.866018,0.559805,0.321648,-112.548828,72.937012,39.428711
0.963918,0.581290,0.377312,-87.036133,71.166992,33.813477
0.821828,0.642325,0.282341,-88.195801,40.344238,29.907227
0.970510,0.639883,0.315544,-71.777344,10.437012,34.790039
0.856008,0.670157,0.310906,-66.406250,24.658203,32.531738
0.840627,0.742667,0.450066,-58.654785,21.850586,32.897949
0.917287,0.723624,0.469353,-36.804199,-12.451172,36.010742
0.945852,0.723868,0.321648,-23.681641,-20.690918,36.193848
0.986623,0.745352,0.236687,-5.065918,0.488281,32.775879
0.971975,0.728751,0.222039,-4.821777,-25.817871,27.343750
0.971487,0.753897,0.081902,5.187988,-40.527344,32.226562
1.002736,0.755606,0.215935,0.000000,20.629883,25.329590
0.887014,0.729727,0.479851,7.263184,14.770508,32.287598
0.965627,0.657217,0.513298,34.851074,-9.033203,31.127930
0.793264,0.640860,0.652459,54.016113,-19.470215,24.841309
0.887746,0.513419,0.504265,82.031250,-78.002930,34.118652
0.864309,0.477042,0.362664,97.534180,-69.763184,25.329590
0.923147,0.404776,0.307244,102.783203,-79.345703,17.395020
0.897268,0.305167,0.323601,120.666504,-47.607422,5.493164
0.921438,0.342764,0.234002,139.526367,-46.081543,11.230469
0.813772,0.272208,0.116814,165.771484,-25.329590,5.371094
0.819875,0.304923,0.076531,162.231445,-42.053223,6.530762
0.820608,0.366934,-0.165901,171.630859,-2.502441,10.009766
0.853078,0.447501,0.022820,153.625488,22.399902,34.301758
0.912649,0.478995,-0.114387,135.986328,-60.974121,28.869629
0.951955,0.420645,-0.153938,138.610840,-31.433105,27.587891
0.873342,0.567618,-0.318489,117.919922,-53.161621,28.381348
0.832082,0.734610,-0.359504,110.778809,1.037598,23.132324
0.769338,0.691885,-0.485237,78.186035,-63.354492,18.920898
0.450979,0.942374,-0.428108,60.363770,10.986328,39.978027
0.406301,0.816641,-0.500862,21.301270,-47.363281,71.411133
0.210744,0.888174,-0.203498,5.065918,-31.005859,102.905273
0.301565,0.743643,0.000847,-9.704590,8.666992,145.446777
0.223440,0.476553,-0.060432,-10.803223,-106.994629,195.434570
0.426076,0.341544,-0.147834,-4.455566,-28.625488,227.844238
0.689260,-0.054941,-0.028450,-12.878418,39.672852,239.135742
0.632375,-0.186777,0.028923,-6.835938,5.126953,223.083496
0.746877,-0.105722,0.160271,-11.535645,13.000488,208.374023
0.398244,-0.172617,-0.034553,2.441406,-67.810059,177.246094
0.487844,-0.302988,-0.247688,-6.958008,-36.193848,213.562012
0.226858,-0.300546,0.110711,-13.061523,33.325195,192.016602
0.454397,-0.415292,-0.209358,0.305176,-40.283203,188.171387
0.189016,-0.377451,-0.066291,-11.657715,133.117676,159.118652
0.196340,-0.238535,0.296990,-15.502930,180.114746,160.949707
0.258596,-0.212656,0.225701,-13.305664,22.827148,126.892090
0.199026,-0.126230,0.064568,-11.596680,-7.202148,89.965820
0.156057,-0.055429,0.027214,-16.235352,2.014160,91.613770
0.211233,-0.063730,0.100945,-6.713867,25.207520,76.049805
0.116018,-0.037119,0.128533,-3.723145,15.502930,46.630859
0.106985,-0.016855,0.035027,-5.798340,-41.076660,25.329590
0.021047,0.001456,0.037957,-11.840820,-35.034180,6.225586
0.026906,-0.040048,0.014031,-11.657715,-34.545898,-6.713867
0.138723,-0.090585,-0.071418,-11.169434,-17.944336,-11.291504
0.314260,-0.212900,-0.142219,-26.855469,-13.488770,-24.780273
0.477102,-0.328134,-0.001350,-25.207520,6.408691,-43.518066
0.497854,-0.433603,0.110955,-6.469727,26.550293,-98.571777
0.344778,-0.479013,0.130730,3.173828,-6.286621,-144.042969
0.375539,-0.486337,-0.018928,12.268066,-8.605957,-157.409668
0.262502,-0.480722,0.069695,-3.417969,-19.958496,-170.410156
0.324758,-0.320322,0.058709,0.793457,-16.296387,-167.419434
0.463674,-0.214609,0.019646,-16.906738,-40.832520,-164.733887
0.475149,-0.098886,-0.019172,-11.474609,-33.630371,-158.203125
0.519826,0.094229,-0.020149,-7.202148,9.704590,-154.418945
0.506643,0.257559,0.034539,-13.488770,-34.729004,-145.751953
0.501760,0.464590,-0.007942,-5.126953,-6.042480,-128.601074
0.455617,0.610831,-0.086555,-9.033203,-0.671387,-112.182617
0.222463,0.853751,-0.060188,5.187988,21.667480,-80.688477
0.274709,1.086172,-0.026985,-18.615723,-6.286621,-31.799316
0.507375,1.011710,-0.036995,-13.732910,-5.249023,-5.798340
0.643850,1.012198,-0.255012,-13.122559,-29.968262,14.465332
0.684621,1.033438,-0.489875,-27.221680,-38.146973,19.775391
0.710988,0.983389,-0.608528,-54.870605,-32.226562,50.720215
0.798391,0.920889,-0.497932,-88.195801,0.610352,65.551758
0.895070,0.818838,-0.398811,-104.675293,-25.207520,69.824219
0.964162,0.738028,-0.428596,-114.135742,-18.371582,73.181152
0.879201,0.691153,-0.343879,-123.229980,16.845703,67.749023
0.804983,0.669913,-0.284065,-132.263184,19.165039,72.204590
0.847951,0.549063,-0.268440,-139.343262,29.968262,75.134277
0.804250,0.496329,-0.222541,-158.142090,21.057129,96.496582
0.896291,0.374014,-0.146125,-162.597656,45.898438,85.388184
1.053029,0.285880,-0.144661,-173.889160,27.160645,96.923828
1.067190,0.253165,0.075798,-166.381836,78.063965,78.063965
0.912893,0.350089,0.148796,-166.992188,58.105469,55.236816
1.027639,0.285391,0.010857,-158.020020,39.489746,49.072266
0.917776,0.412100,0.187371,-156.860352,86.303711,53.588867
0.838430,0.540274,0.374382,-141.845703,125.549316,29.602051
0.977834,0.473380,0.507927,-132.080078,36.804199,34.606934
0.804250,0.726553,0.536003,-113.403320,30.639648,29.785156
0.835012,0.788321,0.494988,-78.979492,17.883301,29.663086
0.872610,0.818838,0.615105,-63.964844,38.574219,33.630371
0.864065,0.861319,0.714226,-26.733398,37.963867,38.818359
0.918996,0.845938,0.554070,-7.995605,-13.854980,49.194336
0.968557,0.848624,0.394402,11.840820,-12.634277,46.997070
1.029348,0.768057,0.440056,21.667480,-36.682129,42.236328
0.989553,0.694571,0.524041,23.498535,3.845215,27.770996
1.019582,0.633292,0.558953,54.382324,-60.852051,47.058105
1.155080,0.519522,0.625603,83.862305,-7.202148,23.132324
0.907766,0.440421,0.633660,106.933594,-25.024414,0.122070
0.877737,0.358389,0.457878,138.671875,-71.899414,7.080078
0.804983,0.409415,0.365105,135.925293,-52.429199,5.371094
0.744924,0.319571,0.109002,154.907227,-35.034180,2.380371
0.786672,0.382315,0.217888,170.898438,-14.221191,26.123047
0.833059,0.488272,0.218865,163.513184,12.939453,21.240234
0.824758,0.260977,0.148796,167.724609,12.329102,36.254883
0.881399,0.426016,0.038933,153.747559,-43.090820,44.006348
0.969045,0.487296,0.099480,149.902344,-15.075684,55.969238
0.876272,0.475821,0.066033,147.216797,-4.760742,35.949707
0.921926,0.430167,-0.175422,140.930176,-72.753906,38.757324
0.725881,0.636954,-0.212288,127.014160,-34.667969,31.066895
0.818410,0.699942,-0.494514,113.586426,-64.392090,54.077148
0.838674,0.718497,-0.601936,73.852539,-5.676270,43.762207
0.629445,0.835440,-0.500618,45.593262,-23.803711,48.889160
0.412649,0.791006,-0.475959,28.442383,21.606445,63.781738
0.154348,0.857169,-0.171760,0.549316,-2.868652,110.046387
0.229055,0.607657,-0.054329,-16.540527,15.075684,153.869629
0.363088,0.421622,-0.028206,-10.375977,-8.605957,184.448242
0.362112,0.367911,0.093377,2.807617,27.465820,200.683594
0.451955,0.039053,0.122918,-26.489258,46.630859,223.693848
0.340627,-0.158456,0.148796,-28.747559,-37.902832,262.695312
0.589162,-0.399423,0.116082,-28.991699,-2.502441,257.385254
0.795705,-0.598154,0.011834,-14.038086,11.474609,251.708984
0.393117,-0.531992,0.021599,-34.790039,124.877930,214.355469
0.545705,-0.419199,0.246697,-65.185547,15.808105,242.248535
0.637502,-0.510751,0.024773,-54.626465,-56.884766,206.542969
0.445608,-0.405038,0.113884,-14.770508,104.431152,140.869141
0.208059,-0.150888,0.208123,-11.962891,103.576660,107.543945
0.133352,-0.012704,0.253777,-23.498535,41.809082,97.778320
0.102102,0.003653,0.195427,-19.958496,-0.549316,91.979980
0.091604,-0.005136,0.121453,-11.840820,5.004883,74.951172
0.073537,-0.005869,0.127312,-8.605957,11.779785,55.236816
0.093069,-0.012704,0.102654,-4.943848,8.666992,29.052734
0.147268,-0.052744,0.093132,-2.380371,-16.784668,10.131836
0.249563,-0.192636,0.049431,-2.685547,-12.145996,-12.329102
0.248342,-0.244882,0.133904,-15.014648,-38.330078,-32.287598
0.437795,-0.363046,0.269158,1.892090,-39.672852,-78.674316
0.383840,-0.444589,0.215935,-1.525879,-91.430664,-115.600586
0.365529,-0.583749,0.103142,16.113281,-52.612305,-144.470215
0.450246,-0.683115,0.146843,-7.141113,-66.162109,-182.312012
0.352590,-0.683359,0.109002,14.221191,-41.625977,-208.251953
0.342092,-0.530527,0.098503,1.647949,-59.753418,-219.116211
0.290822,-0.292001,-0.017219,2.807617,-44.921875,-217.895508
0.325246,-0.026376,-0.041389,-6.103516,-26.184082,-185.546875
0.372610,0.240714,-0.017219,-5.187988,9.155273,-148.071289
0.350149,0.401114,0.008904,-11.230469,24.597168,-131.591797
0.133596,0.752676,0.002800,-1.770020,29.418945,-102.539062
0.231252,0.861563,-0.119270,-17.272949,-28.076172,-48.522949
0.340383,0.986319,-0.055549,-25.573730,-13.244629,-17.700195
0.600637,0.941885,-0.141975,-29.846191,-40.344238,0.244141
0.608449,0.955313,-0.340461,-23.132324,-26.062012,3.784180
0.638235,0.983389,-0.606331,-50.170898,-64.819336,29.724121
0.712453,0.841544,-0.726692,-77.941895,-36.682129,65.368652
0.704397,0.723624,-0.526985,-111.450195,10.437012,66.223145
0.757375,0.619131,-0.447395,-130.126953,15.808105,79.284668
0.828420,0.457510,-0.380256,-150.939941,14.038086,88.317871
0.805227,0.367178,-0.381721,-164.367676,24.963379,95.397949
0.902151,0.217276,-0.262825,-171.752930,96.435547,100.646973
0.953664,0.118155,-0.000129,-189.758301,108.032227,87.829590
0.983938,0.114249,0.143669,-200.378418,113.342285,69.213867
0.969045,0.139639,0.140984,-199.645996,33.447266,54.992676
0.969045,0.133536,0.262810,-181.762695,82.763672,55.114746
0.949758,0.273917,0.365105,-175.842285,89.416504,29.968262
0.981985,0.315909,0.380242,-164.855957,-24.841309,32.653809
0.886281,0.473135,0.336296,-142.150879,34.729004,11.596680
0.824270,0.544424,0.442742,-120.727539,35.095215,11.901855
0.678274,0.730704,0.442498,-98.327637,43.579102,12.268066
0.739797,0.804922,0.460320,-75.073242,24.414062,33.874512
0.801809,0.843741,0.545525,-57.128906,15.625000,45.410156
0.891653,0.874503,0.586052,-35.034180,14.831543,54.931641
1.024465,0.794669,0.749382,-4.943848,14.587402,49.438477
1.073049,0.706290,0.689812,25.512695,-73.608398,44.250488
1.179006,0.728751,0.424675,55.297852,-49.743652,26.245117
1.162649,0.535879,0.434685,78.186035,-9.582520,2.075195
1.043020,0.494864,0.514763,113.098145,-15.075684,5.615234
1.030080,0.379630,0.470574,122.375488,-6.103516,-11.352539
0.926809,0.335928,0.368035,157.043457,-32.409668,-7.629395
0.816945,0.313712,0.282097,160.644531,-25.024414,-13.183594
0.788381,0.293448,0.113152,176.940918,-19.836426,13.427734
0.741018,0.373038,0.183709,174.987793,40.100098,19.653320
0.812551,0.301016,0.035271,174.255371,2.502441,52.185059
0.804983,0.422110,0.224968,172.058105,24.536133,55.847168
0.825002,0.405753,0.091668,160.461426,-30.822754,62.072754
0.907278,0.348868,-0.127327,157.653809,-22.766113,57.189941
0.886281,0.396231,-0.143440,148.559570,-31.250000,68.115234
0.878957,0.547842,-0.413704,137.084961,32.043457,41.564941
0.526662,0.723135,-0.626594,97.473145,-71.716309,43.518066
0.519582,0.763419,-0.554084,59.265137,-35.400391,84.777832
0.443410,0.676016,-0.477913,32.470703,38.635254,73.791504
0.226125,0.794424,-0.114387,13.366699,-42.602539,130.004883
0.268117,0.486075,-0.143684,-2.807617,-17.883301,167.419434
0.397268,0.304678,-0.068000,0.366211,-20.874023,215.759277
0.241506,0.230215,0.047234,-28.808594,111.450195,210.571289
0.450735,-0.186533,0.012078,-41.503906,-39.611816,273.437500
0.347219,-0.405038,0.166863,-64.758301,44.067383,286.926270
0.628957,-0.746103,0.095330,-63.171387,-21.850586,281.188965
0.378469,-0.680673,0.325798,-59.631348,22.583008,255.615234
0.371389,-0.558847,0.109978,-28.930664,-66.223145,232.604980
0.350637,-0.609628,-0.100959,-15.014648,8.850098,216.857910
0.228811,-0.403818,0.155144,-20.507812,192.810059,178.771973
0.235403,-0.255136,0.342400,-29.235840,74.462891,165.222168
0.288137,-0.175058,0.212273,-23.071289,24.719238,144.958496
0.287893,-0.071298,0.187127,-16.418457,8.850098,102.844238
0.311330,-0.016122,0.044548,-2.746582,37.048340,61.767578
0.178029,0.003653,0.149041,5.554199,54.931641,19.775391
0.152883,-0.032968,0.141472,2.502441,-42.541504,-11.474609
0.159719,-0.114267,-0.032600,-7.751465,-50.170898,-34.362793
0.107961,-0.201913,-0.033332,-7.568359,-26.367188,-51.574707
0.215139,-0.361093,0.061882,-26.245117,-58.654785,-79.956055
0.254201,-0.546884,0.230339,-18.798828,-46.569824,-119.140625
0.241750,-0.548593,0.331169,4.760742,-133.117676,-169.311523
0.409719,-0.697031,0.083855,5.310059,-123.657227,-197.875977
0.380422,-0.744150,0.000603,13.793945,-61.096191,-225.219727
0.407278,-0.638437,-0.138557,1.708984,-16.784668,-225.830078
0.366506,-0.452646,-0.030647,-7.751465,-6.408691,-228.637695
0.274465,-0.219492,-0.040413,-12.023926,-40.527344,-210.449219
0.243703,0.179923,-0.141975,-21.240234,-29.724121,-175.476074
0.176076,0.402823,-0.005256,-24.414062,27.160645,-145.446777
0.079153,0.705313,0.006951,-10.803223,34.301758,-101.074219
0.096975,0.846426,-0.045051,-14.404297,-10.498047,-48.950195
0.137990,1.002188,-0.202278,-2.197266,39.367676,-20.324707
0.458791,0.952139,-0.538215,-24.902344,-31.921387,18.737793
0.579885,0.901358,-0.756965,-50.720215,-23.132324,27.282715
0.571828,0.863760,-0.867561,-101.867676,-58.288574,58.227539
0.644094,0.639883,-0.774788,-132.141113,-12.756348,90.332031
0.767141,0.397208,-0.525764,-159.667969,10.437012,97.473145
0.816457,0.244132,-0.350227,-177.612305,23.193359,89.172363
0.808889,0.127188,-0.394172,-204.284668,-21.240234,101.074219
0.845022,-0.083017,-0.353157,-209.106445,57.739258,115.417480
0.904592,-0.080331,-0.085823,-228.637695,89.965820,116.638184
0.975149,-0.102060,0.129265,-233.154297,79.101562,104.125977
1.139699,-0.126718,0.119011,-207.214355,17.395020,91.491699
1.002981,0.063223,0.241814,-185.119629,96.984863,57.739258
0.794729,0.341544,0.273552,-168.395996,115.600586,29.907227
0.894582,0.346671,0.337273,-157.714844,19.470215,40.161133
0.784475,0.623038,0.303582,-123.352051,93.383789,33.874512
0.874319,0.702872,0.458367,-113.342285,69.335938,39.794922
0.904348,0.693594,0.895378,-91.064453,46.569824,56.823730
0.940969,0.743399,0.988152,-34.912109,2.075195,23.010254
0.987112,0.841788,0.758904,4.638672,-38.757324,15.869141
0.959279,0.821280,0.551140,37.658691,-31.372070,20.507812
1.204152,0.601553,0.324334,57.434082,-50.842285,18.798828
1.027151,0.597403,0.285759,63.232422,-16.540527,-1.647949
0.934865,0.649649,0.525261,99.670410,19.775391,12.817383
1.111135,0.394766,0.296746,114.196777,-6.103516,-1.464844
1.006887,0.343008,0.375603,139.709473,-22.583008,-6.469727
0.766164,0.367423,0.433953,159.179688,-7.019043,-18.249512
0.803762,0.163321,0.137322,187.194824,-45.043945,-5.737305
0.682180,0.292227,0.277947,200.256348,19.165039,2.136230
0.739797,0.267569,0.043084,205.993652,0.671387,12.145996
0.793752,0.272452,0.006462,204.833984,4.699707,38.818359
0.877737,0.056632,-0.151985,197.814941,-6.896973,56.213379
0.921194,0.436270,-0.205696,180.297852,-9.948730,57.312012
1.016408,0.449942,-0.290168,179.260254,-20.141602,37.658691
0.851125,0.334464,-0.495491,138.610840,-60.974121,29.052734
0.751760,0.682852,-0.851936,117.492676,-81.848145,27.954102
0.718557,0.671133,-0.752327,69.396973,9.216309,37.475586
0.451955,0.768790,-0.449104,39.550781,57.006836,57.922363
0.281057,0.836172,-0.203743,9.582520,11.901855,86.242676
0.307668,0.692618,-0.189582,-0.366211,-36.560059,144.958496
0.302053,0.515616,0.045037,-12.023926,108.276367,148.803711
0.285451,0.407706,0.107781,-9.460449,-17.761230,195.800781
0.167287,0.249503,0.020378,-19.958496,64.086914,208.618164
0.508352,-0.097177,0.009392,-52.795410,-17.211914,262.878418
0.123586,-0.316171,0.280632,-51.879883,75.744629,276.611328
0.305471,-0.758066,0.252800,-65.917969,-79.284668,334.716797
0.337697,-0.915292,-0.224250,-33.142090,-0.061035,292.968750
0.227346,-0.838388,0.232781,-57.434082,108.215332,297.424316
0.293752,-0.696542,0.229851,-32.958984,141.418457,259.582520
0.293752,-0.547128,0.333611,-22.277832,109.863281,216.613770
0.343313,-0.340585,0.215935,-25.695801,63.598633,157.592773
0.321340,-0.124521,0.238640,-12.695312,48.950195,117.492676
0.261770,0.018790,0.124382,-7.568359,50.109863,76.477051
0.176565,0.055655,0.153191,-5.676270,32.104492,54.809570
0.197561,-0.056650,0.134392,-7.019043,6.591797,4.638672
0.184865,-0.153085,0.185906,-2.929688,-26.123047,-25.207520
0.169485,-0.271494,0.022576,12.023926,-26.367188,-60.363770
0.185598,-0.376474,0.051384,-13.366699,-75.805664,-93.505859
0.218557,-0.614999,0.096550,0.488281,-80.627441,-125.183105
0.177297,-0.750742,0.197625,9.460449,-64.025879,-171.386719
0.220022,-0.854501,0.185173,7.812500,-49.926758,-188.903809
0.189748,-0.853525,0.133904,8.728027,-93.505859,-197.937012
0.365041,-0.839853,-0.079231,18.676758,-45.166016,-225.280762
0.291311,-0.729257,0.045525,-0.427246,-19.775391,-247.131348
0.246877,-0.508554,-0.002082,6.408691,-26.306152,-240.295410
0.253713,-0.217783,-0.023567,9.643555,5.065918,-236.267090
-0.000437,0.157462,0.041375,17.517090,22.033691,-226.867676
-0.296824,0.738516,-0.149055,27.893066,5.798340,-170.593262
-0.123972,0.986807,-0.142463,-11.779785,-37.963867,-86.425781
0.046194,1.131094,-0.155159,-23.010254,-42.968750,-21.362305
0.327688,1.102286,-0.610725,-16.113281,3.967285,20.263672
0.634817,1.030508,-0.968391,-66.772461,-68.237305,34.301758
0.673635,0.981192,-0.875618,-100.891113,-18.981934,55.664062
0.888235,0.712637,-0.683479,-145.751953,5.859375,73.730469
0.904592,0.561514,-0.438850,-173.156738,-22.094727,77.636719
0.926809,0.421622,-0.216682,-189.941406,3.662109,75.927734
0.805471,0.344717,-0.241584,-201.416016,-41.076660,79.772949
0.787404,0.252188,-0.074348,-208.190918,-23.254395,101.379395
0.921682,0.212882,-0.105354,-205.017090,-2.502441,120.361328
0.998830,0.118399,0.070427,-193.054199,27.465820,113.952637
1.046682,0.199942,0.072136,-202.087402,-5.126953,108.337402
1.149709,0.214346,0.002068,-177.673340,7.995605,88.134766
0.976125,0.342032,0.152459,-159.362793,137.573242,61.645508
0.943410,0.503165,0.269158,-135.070801,112.426758,52.429199
0.926076,0.487051,0.485222,-139.526367,-9.460449,66.650391
0.992483,0.718741,0.555779,-103.759766,34.790039,36.376953
1.018361,0.747305,0.558220,-72.570801,16.296387,37.048340
0.926320,0.809805,0.689080,-42.236328,8.605957,31.799316
0.956106,0.863272,0.487175,-10.620117,-29.235840,29.296875
1.005178,0.817862,0.355339,18.310547,-2.502441,38.940430
1.121877,0.733633,0.285515,32.409668,-12.390137,39.062500
1.260793,0.670889,0.401482,41.320801,9.155273,27.832031
1.102102,0.586905,0.629021,81.054688,24.230957,3.234863
1.119680,0.498282,0.434441,118.103027,-37.414551,1.647949
0.905324,0.372305,0.480095,132.751465,15.502930,-23.498535
0.870412,0.136954,0.254753,157.531738,-54.016113,-18.615723
0.829397,0.369132,0.288201,187.927246,4.333496,-5.371094
0.730276,0.361075,0.160271,202.087402,59.997559,-10.864258
0.692922,0.022940,0.052361,207.153320,23.193359,33.142090
0.804983,0.276358,0.119988,205.261230,33.508301,68.054199
0.881643,0.306387,-0.042122,207.641602,33.203125,54.199219
0.948293,0.276602,-0.049934,201.477051,38.574219,68.481445
1.062551,0.442618,-0.182502,162.597656,-35.583496,59.448242
0.974416,0.469717,-0.207161,159.484863,-1.220703,63.049316
1.053274,0.544424,-0.408577,122.985840,-93.688965,52.246094
0.755178,0.696280,-0.690559,97.778320,-1.647949,30.761719
0.706594,0.791006,-0.607795,45.593262,-61.706543,54.565430
0.467824,0.741690,-0.494026,8.789062,-19.042969,65.612793
0.122854,0.982169,-0.061409,-0.671387,59.875488,86.486816
0.200735,0.727286,-0.010872,-15.869141,-42.114258,152.648926
0.305715,0.509024,-0.095344,-11.840820,38.452148,177.001953
0.258596,0.413077,0.171502,-27.099609,101.867676,192.443848
0.389944,0.092764,0.078484,-45.288086,-71.777344,238.830566
0.254690,-0.097910,0.076287,-60.241699,98.876953,268.371582
0.816213,-0.764169,0.223748,-61.767578,-10.253906,303.466797
0.380422,-0.525644,0.247429,-69.152832,56.762695,250.793457
0.345510,-0.698740,0.114617,-59.387207,-33.813477,260.925293
0.273244,-0.598642,0.205193,-59.753418,53.222656,254.272461
0.273733,-0.561288,0.201287,-44.799805,17.150879,243.591309
0.299612,-0.527841,0.127068,-15.197754,116.821289,207.580566
0.191213,-0.308359,0.282097,-23.010254,138.854980,167.419434
0.281301,-0.189462,0.273308,-28.076172,32.226562,139.709473
0.376516,-0.141367,0.193230,-26.611328,3.601074,92.834473
0.478322,-0.142587,0.178826,-6.164551,48.156738,51.330566
0.426320,-0.206552,0.252556,3.540039,40.222168,-11.474609
0.342336,-0.304697,0.339714,9.765625,-41.748047,-63.293457
0.317922,-0.459238,0.234002,18.127441,-78.247070,-105.651855
0.322317,-0.682626,0.208611,28.381348,-68.542480,-136.535645
0.292776,-0.927255,0.171990,21.301270,-75.622559,-182.128906
0.212697,-1.004404,0.169304,27.832031,-57.983398,-217.468262
0.202688,-0.950937,0.113884,21.728516,-67.932129,-246.093750
0.163869,-0.765878,0.168816,25.573730,-20.446777,-260.559082
0.063283,-0.484872,0.138298,28.442383,-75.744629,-259.399414
0.013479,-0.098642,0.003777,8.972168,-76.965332,-245.544434
0.071828,0.291007,-0.059700,6.164551,-44.494629,-199.645996
0.108449,0.533682,-0.093147,6.347656,-5.493164,-147.216797
-0.053172,0.887442,-0.078010,6.591797,10.681152,-104.980469
0.033987,1.103018,-0.123664,-20.812988,-45.837402,-37.719727
0.284475,1.052237,-0.124641,-10.498047,-1.464844,8.483887
0.557180,0.978751,-0.630500,-16.906738,1.037598,36.071777
0.592336,0.986807,-0.813850,-62.316895,-39.855957,51.635742
0.844778,0.733145,-0.918342,-99.426270,-47.851562,86.853027
0.848440,0.607657,-0.711799,-140.197754,6.774902,76.232910
0.793020,0.518546,-0.325813,-178.649902,-71.289062,85.937500
1.032277,0.295401,-0.701301,-175.903320,-41.137695,116.027832
0.971975,0.183340,-0.235725,-205.749512,42.419434,101.074219
0.911428,0.137686,-0.066780,-208.007812,25.695801,104.492188
1.012258,0.147940,-0.074592,-188.720703,55.480957,89.172363
0.883596,0.199942,0.115837,-192.565918,39.245605,73.425293
0.726613,0.347159,0.091423,-182.373047,88.317871,59.936523
0.890676,0.301993,-0.017952,-164.855957,33.874512,73.425293
0.790090,0.438223,0.334587,-164.367676,73.242188,80.932617
0.981985,0.499747,0.156121,-138.793945,72.875977,66.040039
1.002736,0.477286,0.239861,-122.009277,32.775879,55.603027
0.910207,0.654532,0.323113,-111.877441,71.044922,36.254883
0.969533,0.685782,0.286492,-96.069336,41.442871,42.663574
0.927785,0.739004,0.592644,-78.491211,43.395996,37.353516
0.946096,0.840811,0.714470,-41.748047,22.705078,35.156250
1.127248,0.733633,0.718621,-12.573242,-30.334473,40.100098
1.090627,0.737540,0.643181,32.714844,-31.066895,35.522461
1.147024,0.712637,0.425896,50.720215,-23.437500,15.625000
1.112356,0.649649,0.631462,65.612793,-8.361816,12.268066
1.018606,0.467276,0.552849,102.661133,-14.160156,-6.469727
0.895559,0.342520,0.512566,149.414062,-47.668457,-0.244141
0.804250,0.364493,0.377312,168.090820,-13.183594,-25.573730
0.801809,0.128653,0.161003,196.655273,-3.173828,-6.713867
0.851125,0.348135,0.224480,197.143555,-10.620117,24.047852
0.824758,0.279532,0.091668,205.810547,62.011719,16.906738
0.888967,0.213370,0.045281,184.997559,-32.165527,41.076660
0.919485,0.410391,-0.037971,171.020508,-22.766113,36.437988
1.005910,0.232169,-0.199836,175.720215,30.090332,33.020020
0.880910,0.517813,0.000359,158.630371,-39.550781,43.640137
0.847463,0.612051,-0.247200,147.094727,-12.817383,26.977539
0.883108,0.555167,-0.398567,125.793457,-81.848145,43.518066
0.567434,0.779532,-0.657844,93.627930,-23.437500,35.827637
0.531545,0.751212,-0.752571,56.030273,-23.681641,47.546387
0.220998,0.884024,-0.369758,36.621094,72.204590,80.749512
0.223195,0.734366,-0.303352,2.929688,0.427246,120.544434
0.257863,0.654288,-0.083870,-0.305176,-18.737793,166.992188
0.211721,0.514395,-0.081184,-6.164551,28.198242,164.916992
0.232961,0.275626,-0.058235,-25.329590,0.549316,214.294434
0.349416,0.026846,0.003777,-22.766113,86.486816,243.530273
0.287649,-0.227792,0.412224,-66.833496,93.933105,278.747559
0.358205,-0.729746,0.095574,-68.237305,-50.048828,283.996582
0.481252,-0.951181,0.244011,-61.706543,63.659668,302.001953
0.379934,-0.814706,0.330193,-62.805176,24.291992,257.263184
0.371633,-0.611581,0.201043,-40.588379,-20.812988,217.956543
0.354543,-0.510263,0.084099,-34.606934,6.774902,194.580078
0.317434,-0.341562,0.148552,-14.770508,70.068359,179.260254
0.392629,-0.186533,0.190300,-18.249512,55.847168,152.954102
0.555959,-0.132333,0.123162,-6.774902,46.569824,117.980957
0.601369,-0.151865,0.118523,1.342773,78.857422,55.053711
0.575246,-0.215585,0.222771,-2.929688,21.850586,-10.742188
0.401418,-0.317636,0.178582,-2.258301,-24.047852,-68.969727
0.314992,-0.469003,0.188591,-4.943848,-48.828125,-87.585449
0.319387,-0.689462,0.272332,6.591797,-67.382812,-135.681152
0.335988,-0.915781,0.173455,14.831543,-84.472656,-188.964844
0.254201,-1.021738,0.189812,13.793945,-78.918457,-240.600586
0.265188,-1.018808,0.094353,15.197754,-75.561523,-257.568359
0.170705,-0.784677,0.148308,11.840820,-59.143066,-286.804199
0.147024,-0.435800,-0.063362,7.629395,-63.110352,-266.845703
0.140188,-0.092294,-0.079475,-6.286621,-62.561035,-235.229492
-0.052195,0.289786,-0.096077,-0.061035,13.793945,-209.716797
-0.137888,0.624747,-0.180305,5.187988,0.976562,-131.591797
-0.244090,1.008047,-0.354133,-11.596680,-8.789062,-71.105957
0.187307,0.879629,-0.632454,-26.123047,8.300781,-0.610352
0.343801,0.953360,-0.693977,-66.711426,-19.897461,21.789551
0.581350,0.847159,-0.809456,-97.656250,-35.522461,47.119141
0.643606,0.755362,-0.710823,-145.141602,-42.602539,72.570801
0.831106,0.509024,-0.604622,-166.076660,-26.733398,100.585938
0.975881,0.299796,-0.460579,-184.204102,3.051758,93.994141
0.898733,0.248526,-0.190559,-187.866211,62.683105,74.829102
0.794240,0.227286,-0.174690,-209.106445,39.062500,71.777344
0.844045,0.172354,-0.054817,-227.355957,3.479004,104.858398
0.858938,0.146719,0.079216,-224.060059,94.360352,100.219727
1.102102,0.026114,0.137566,-215.026855,16.052246,103.454590
1.002004,0.253165,0.304558,-197.509766,92.651367,74.401855
1.231252,0.224112,0.113640,-164.672852,59.509277,48.339844
0.955129,0.434805,0.436394,-145.751953,68.481445,33.630371
0.794729,0.640616,0.420037,-123.168945,69.580078,10.559082
0.798635,0.722159,0.702996,-108.520508,45.898438,42.297363
0.765676,0.831778,0.896355,-75.805664,51.025391,42.541504
0.889699,0.903555,0.986687,-33.630371,5.615234,46.142578
0.967580,0.774405,0.935173,23.010254,18.737793,41.442871
0.985403,0.743887,0.911980,49.194336,-43.395996,37.414551
1.153371,0.581778,0.411980,88.378906,-62.133789,19.165039
1.039113,0.516104,0.506951,119.812012,-4.150391,11.047363
1.064504,0.531241,0.426628,123.962402,-50.781250,2.258301
0.949026,0.264883,0.379021,148.620605,-28.320312,-1.525879
0.906545,0.288809,0.237175,167.480469,-36.315918,-0.244141
0.867483,0.360831,0.181511,189.270020,-0.793457,-10.620117
0.790578,0.200430,0.071648,189.575195,46.997070,4.699707
0.790822,0.409659,0.056023,177.978516,25.085449,32.409668
0.824514,0.485587,0.010857,182.434082,-7.568359,48.034668
0.776174,0.338370,0.073357,158.874512,-2.258301,46.875000
0.898244,0.356924,-0.126106,161.804199,-49.072266,61.950684
0.821096,0.638419,-0.199348,149.475098,-68.115234,51.513672
0.850393,0.578604,-0.681526,134.094238,-35.034180,22.521973
0.586477,0.742667,-0.892219,99.548340,-87.768555,38.330078
0.241994,0.878409,-0.751594,60.180664,79.650879,71.472168
0.222951,0.726065,-0.316780,20.629883,7.141113,125.488281
0.268850,0.672354,-0.156623,7.812500,-19.531250,137.512207
0.282033,0.499503,-0.061653,-4.089355,27.343750,178.344727
0.414602,0.231192,0.161492,-8.728027,32.409668,212.585449
0.405080,-0.021005,-0.040413,-11.413574,28.198242,216.369629
0.408742,-0.190439,0.117546,-31.555176,46.264648,250.915527
0.391897,-0.398691,0.144402,-58.654785,-5.798340,299.865723
0.438772,-0.682382,-0.033332,-60.058594,74.645996,294.799805
0.336965,-0.712412,0.284294,-80.932617,51.452637,316.406250
0.641408,-0.766122,0.153191,-55.419922,36.621094,277.770996
0.394338,-0.580331,0.231072,-29.296875,140.869141,195.251465
0.220754,-0.426035,0.182976,-28.198242,41.564941,158.813477
0.282278,-0.182871,0.180046,-27.465820,34.240723,142.822266
0.395070,-0.143808,0.103142,-20.263672,44.616699,114.501953
0.451467,-0.086923,0.245964,-15.747070,32.104492,70.922852
0.554738,-0.150400,0.159783,-9.765625,-34.179688,21.972656
0.406057,-0.242929,0.068718,-4.882812,-4.516602,-37.719727
0.294973,-0.321298,0.052849,-0.610352,-4.089355,-72.204590
0.383840,-0.613290,0.222039,3.845215,-28.930664,-106.018066
0.384817,-0.834970,0.366326,27.038574,-79.467773,-155.944824
0.379934,-0.999521,0.138787,33.142090,-106.506348,-208.007812
0.337453,-1.047861,0.118279,31.127930,-40.039062,-229.858398
0.325979,-0.998056,0.168816,24.291992,-58.410645,-260.498047
0.248342,-0.783945,0.079705,32.104492,-71.777344,-276.062012
0.012746,-0.494150,0.085564,25.573730,-54.260254,-296.630859
-0.289744,0.155508,-0.013313,27.038574,-41.809082,-254.699707
-0.211863,0.627188,-0.158821,5.065918,-30.395508,-153.442383
-0.110545,0.913077,-0.066291,0.000000,4.150391,-91.979980
0.055471,0.981192,-0.321907,-6.713867,-5.310059,-28.503418
0.285207,0.970694,-0.673469,-23.254395,-14.038086,14.831543
0.551076,0.943594,-0.817024,-71.289062,-5.859375,32.897949
0.643850,0.841788,-0.885872,-114.868164,-53.771973,51.696777
0.783010,0.667715,-0.701545,-149.780273,-20.080566,72.326660
0.834524,0.492178,-0.623420,-176.635742,-14.770508,82.946777
0.825979,0.353262,-0.501106,-196.960449,-1.586914,97.595215
0.854787,0.172354,-0.245491,-221.069336,36.621094,105.590820
0.843069,0.056876,-0.032112,-223.449707,51.208496,103.637695
0.914846,0.004385,0.121209,-217.468262,66.101074,98.937988
0.941457,0.094717,0.132683,-219.848633,7.324219,94.116211
1.003957,-0.002451,0.254021,-196.166992,103.515625,82.885742
1.070852,0.159903,0.293816,-175.537109,56.640625,66.162109
1.040334,0.289786,0.455437,-150.817871,91.491699,57.739258
0.950490,0.532950,0.421502,-126.892090,99.670410,25.756836
0.921194,0.484854,0.463005,-101.379395,49.194336,22.644043
0.773488,0.679190,0.466912,-103.515625,29.174805,11.108398
0.808645,0.807120,0.604851,-75.561523,33.630371,17.883301
0.787893,0.810538,0.796257,-52.185059,25.512695,36.132812
0.591604,0.889395,1.050164,-2.502441,20.202637,50.476074
1.076711,0.672110,0.795037,37.597656,-31.799316,61.035156
1.217092,0.618887,0.544793,74.645996,-54.321289,16.357422
1.137990,0.597159,0.363640,72.570801,-65.429688,9.704590
1.133108,0.494864,0.368035,103.454590,-27.221680,-7.141113
0.952444,0.676993,0.478630,117.004395,5.249023,-19.165039
0.998586,0.375479,0.387078,132.995605,-40.344238,-8.972168
0.913625,0.316885,0.386834,158.691406,-19.287109,-4.394531
0.802541,0.452383,0.362175,166.137695,-27.343750,2.197266
0.857229,0.095206,0.170037,186.706543,-9.521484,14.648438
0.824270,0.500479,0.277703,177.856445,7.080078,48.156738
1.005178,0.239493,0.117791,180.419922,21.362305,48.950195
0.910940,0.199698,0.067742,188.720703,-44.921875,36.315918
0.795217,0.426260,0.035759,175.170898,2.441406,24.353027
0.765920,0.292471,-0.364143,193.908691,-34.912109,33.935547
0.667531,0.639883,-0.602913,160.644531,-56.762695,42.907715
0.831594,0.680899,-1.095344,160.400391,131.225586,25.756836
0.750295,0.701163,-0.653938,65.246582,113.464355,57.983398
0.494924,0.810294,-0.282112,36.621094,71.289062,84.899902
0.295705,0.731192,-0.239875,-10.437012,-82.763672,102.294922
0.212453,0.643546,-0.291633,-8.483887,-53.039551,142.272949
0.092824,0.547842,0.010857,-26.916504,68.420410,181.884766
0.169973,0.354483,0.149285,-22.094727,56.274414,211.120605
0.349660,0.070303,0.358757,-60.668945,82.641602,233.947754
0.472463,-0.318613,0.150994,-96.984863,-82.824707,290.344238
0.663625,-0.627451,0.411736,-73.303223,34.118652,299.804688
0.489553,-0.751962,0.198601,-85.571289,-59.082031,298.095703
0.380422,-0.931650,0.189080,-62.011719,-17.333984,294.616699
0.476858,-0.761484,0.107293,-52.124023,37.902832,269.409180
0.366994,-0.475595,0.229851,-39.184570,155.029297,223.937988
0.442678,-0.341074,0.465691,-27.038574,92.773438,201.049805
0.456594,-0.182871,0.141961,-12.512207,-1.220703,136.413574
0.461477,-0.170419,0.071404,-10.314941,34.484863,89.172363
0.450002,-0.073007,0.016472,19.348145,114.135742,44.555664
0.616506,-0.301767,0.081169,-11.413574,48.461914,-2.075195
0.482961,-0.430917,0.161492,-0.427246,-20.690918,-65.979004
0.412404,-0.575449,0.316521,-29.724121,-156.921387,-110.046387
0.393606,-0.767831,0.439812,8.850098,-118.774414,-177.856445
0.345510,-0.995371,0.224236,26.123047,-113.281250,-218.872070
0.142385,-1.075204,0.119988,49.011230,-63.049316,-255.676270
0.195608,-0.975839,0.000603,13.916016,-69.335938,-257.507324
0.229299,-0.823496,0.030632,18.859863,-26.123047,-266.784668
0.073049,-0.433115,0.004753,5.981445,-54.626465,-264.892578
-0.112742,0.101065,-0.065803,11.108398,-27.770996,-233.581543
-0.217722,0.532462,-0.161995,2.624512,-10.620117,-159.667969
-0.068797,0.812979,-0.162971,-9.582520,20.507812,-99.426270
0.078176,0.916251,-0.319954,-16.418457,0.183105,-53.649902
0.348440,0.904532,-0.679573,-31.066895,-10.742188,-8.239746
0.523000,0.947501,-0.812385,-87.768555,-16.723633,8.483887
0.674367,0.851065,-0.741340,-117.004395,9.338379,34.545898
0.833059,0.724844,-0.508918,-160.949707,-18.798828,48.217773
0.936330,0.574454,-0.391487,-170.593262,-24.047852,58.166504
0.987112,0.494864,-0.311164,-187.683105,-49.255371,62.438965
0.961721,0.338614,-0.219856,-200.256348,4.089355,74.951172
0.943654,0.226309,0.062127,-205.871582,54.565430,68.176270
0.901906,0.287344,0.157586,-188.232422,16.418457,70.556641
0.830862,0.355704,0.212517,-189.086914,31.433105,69.213867
0.904348,0.397696,0.283562,-176.879883,35.644531,67.321777
1.006643,0.448721,0.130730,-159.240723,18.005371,65.551758
0.855031,0.542227,0.218621,-151.977539,91.247559,57.739258
0.901662,0.484366,0.422234,-144.287109,53.222656,70.739746
1.026906,0.603506,0.391716,-125.976562,41.320801,45.715332
0.965139,0.632315,0.532341,-109.802246,-12.573242,52.368164
0.983205,0.704337,0.392449,-89.416504,8.117676,35.095215
0.953176,0.798819,0.533806,-71.594238,13.000488,35.888672
0.944875,0.858145,0.679558,-50.537109,-12.634277,33.996582
0.989065,0.742667,0.691277,-12.390137,-7.019043,32.409668
0.967824,0.811758,0.826775,28.381348,18.432617,30.761719
1.087453,0.733145,0.523308,52.062988,-64.514160,30.639648
1.119436,0.635245,0.404900,80.322266,-13.061523,10.498047
1.045217,0.535879,0.368279,101.135254,-21.057129,6.958008
0.979055,0.570792,0.403191,122.253418,-14.953613,4.699707
0.942190,0.447989,0.244744,122.619629,-23.986816,-7.629395
0.911184,0.380606,0.378044,162.841797,10.498047,10.742188
0.880666,0.332266,0.361199,166.015625,-9.216309,1.708984
0.809377,0.361075,0.133171,186.218262,2.807617,20.446777
0.720998,0.289786,0.081902,188.293457,31.677246,27.099609
0.836965,0.531241,-0.004768,181.701660,11.169434,50.109863
1.049123,0.244376,-0.000129,172.241211,43.579102,61.096191
0.911428,0.490958,0.256462,150.207520,34.240723,57.250977
0.842580,0.383536,-0.199104,155.456543,-63.354492,49.255371
0.874563,0.703604,-0.299934,142.333984,-98.693848,58.959961
0.965383,0.666495,-0.701057,112.976074,-13.061523,42.541504
0.820363,0.691397,-0.547981,70.922852,-25.329590,41.564941
0.667776,0.862784,-0.578498,28.747559,-28.381348,42.846680
0.431692,0.888419,-0.352180,0.793457,-11.718750,77.026367
0.144582,0.883292,-0.099983,-6.103516,72.204590,109.985352
0.220754,0.689688,-0.052864,-24.414062,-16.418457,160.034180
0.214651,0.530020,0.167351,-20.812988,96.862793,189.880371
0.346242,0.170401,0.007195,-38.696289,-26.855469,215.515137
0.204641,0.011710,0.246941,-37.841797,21.667480,254.699707
0.266897,-0.454355,-0.127327,-54.382324,-82.214355,269.287109
0.391653,-0.559824,0.053337,-39.916992,26.428223,304.504395
0.343313,-0.794443,0.140252,-86.303711,-28.991699,320.007324
0.801565,-0.828378,-0.150032,-32.836914,-36.254883,294.616699
0.714162,-0.707773,-0.183723,-33.203125,76.477051,212.951660
0.423635,-0.386972,0.145623,-20.507812,137.329102,154.785156
0.236623,-0.281503,0.194207,-32.287598,25.268555,121.093750
0.219533,-0.114023,0.209099,-31.494141,-2.441406,105.041504
0.209524,-0.034189,0.191277,-11.596680,11.169434,88.439941
0.246145,-0.007578,0.156365,1.220703,14.465332,66.040039
0.363820,-0.079355,0.101677,15.991211,69.213867,32.531738
0.422658,-0.164804,0.042107,9.826660,36.865234,1.586914
0.402151,-0.283456,0.037468,-10.498047,-17.333984,-47.058105
0.479055,-0.459482,0.037224,-12.207031,-52.307129,-93.078613
0.456106,-0.614999,0.194207,-0.915527,-35.217285,-127.197266
0.408254,-0.767099,0.125847,21.972656,-116.394043,-181.396484
0.392873,-0.911142,-0.131233,20.385742,-80.810547,-236.633301
0.332815,-0.799326,-0.130745,7.446289,-18.920898,-250.488281
0.411672,-0.696542,-0.050666,8.178711,4.211426,-252.136230
0.329153,-0.390878,0.038689,-10.864258,-46.569824,-235.595703
0.301320,-0.048349,-0.116829,-14.343262,-32.470703,-202.209473
0.160940,0.294180,-0.039192,-10.864258,24.353027,-166.809082
-0.049998,0.666251,-0.106819,2.807617,48.034668,-127.502441
0.025686,0.755118,-0.068977,-9.948730,1.342773,-55.969238
-0.027049,0.934317,-0.232795,-19.836426,22.766113,-32.287598
0.407766,0.968741,-0.635872,-35.278320,-75.439453,16.357422
0.586233,0.895987,-0.887336,-81.115723,-15.991211,16.845703
0.710500,0.802481,-0.704963,-113.586426,20.019531,42.480469
0.825735,0.603506,-0.542610,-163.024902,-46.508789,60.302734
0.883596,0.465079,-0.425911,-171.203613,-9.460449,70.190430
0.915090,0.338370,-0.236946,-190.185547,3.601074,73.730469
0.893362,0.236319,-0.175911,-194.274902,20.935059,73.730469
0.752981,0.255118,-0.027717,-198.608398,17.272949,87.707520
0.863820,0.191641,0.059685,-209.045410,16.113281,101.501465
0.986135,0.125479,-0.043098,-194.824219,23.681641,110.412598
0.919973,0.242178,0.131462,-186.340332,124.450684,80.078125
0.951467,0.155997,0.335076,-185.913086,63.720703,79.040527
1.009817,0.294669,0.341668,-160.217285,-19.897461,80.810547
1.048147,0.409415,0.198357,-142.517090,82.763672,39.794922
0.926320,0.518301,0.553337,-122.619629,83.923340,37.719727
0.856985,0.734366,0.799675,-110.534668,30.334473,36.621094
1.096975,0.765372,0.966179,-61.035156,24.780273,47.668457
1.022024,0.767081,1.087517,-8.422852,18.127441,12.145996
0.872365,0.778311,1.016472,46.569824,9.033203,3.723145
0.992483,0.676993,0.598503,87.463379,-74.096680,25.939941
1.070852,0.526358,0.344353,102.783203,-56.213379,16.357422
1.127736,0.422842,0.162224,112.854004,-49.011230,2.929688
1.174367,0.460684,0.025261,106.323242,-41.320801,-17.333984
0.904104,0.440421,0.390496,153.808594,37.231445,-15.136719
0.863332,0.354483,0.393181,147.827148,-7.202148,-33.813477
0.823537,0.280020,0.146843,169.128418,-72.509766,-20.385742
0.772024,0.552725,0.000603,182.861328,6.713867,-12.390137
0.772756,0.371573,0.053337,173.522949,42.663574,25.085449
0.900930,0.330313,0.117791,177.917480,46.752930,43.884277
0.893362,0.549063,-0.018440,173.522949,7.751465,22.216797
0.852102,0.477530,-0.085334,160.888672,-3.112793,27.832031
0.753225,0.598624,-0.198860,155.029297,12.451172,53.344727
0.918752,0.670645,-0.398811,145.385742,-77.575684,63.781738
0.945363,0.700430,-0.780891,95.275879,-124.450684,40.161133
0.740285,0.832022,-0.752327,75.500488,61.645508,38.269043
0.551565,0.827139,-0.488166,39.001465,11.718750,65.551758
0.329397,0.816153,-0.282112,5.493164,5.065918,83.496094
0.148488,0.794180,-0.109748,-6.774902,-32.958984,134.704590
0.356740,0.410391,-0.193000,5.432129,40.100098,167.907715
0.277883,0.417960,0.171990,-5.004883,64.147949,186.889648
0.278371,0.288565,-0.019661,-22.460938,5.371094,197.631836
0.618215,-0.069589,-0.054817,-21.728516,5.371094,247.924805
0.485647,-0.276621,0.073601,-53.222656,60.302734,264.770508
0.627737,-0.637460,0.211296,-37.963867,26.306152,277.709961
0.651418,-0.548105,0.107781,-51.513672,-48.645020,266.052246
0.553518,-0.415781,0.218377,-52.917480,25.329590,243.774414
0.683401,-0.504160,0.020623,-33.691406,-58.105469,239.257812
0.645315,-0.393076,-0.027961,-29.113770,47.912598,152.221680
0.394826,-0.182626,0.118523,-9.582520,45.532227,95.458984
0.265432,-0.073251,0.020378,-10.253906,27.587891,82.885742
0.272512,-0.077646,0.066765,-9.643555,26.245117,55.847168
0.130910,-0.050790,0.062615,-2.014160,27.587891,25.329590
-0.042674,0.002432,0.035271,-6.774902,-2.868652,13.305664
-0.104930,0.037344,-0.009895,-8.239746,-9.948730,7.873535
-0.126414,0.045157,0.003044,-12.695312,-17.028809,20.874023
-0.071726,0.006094,0.022087,-12.145996,-4.272461,16.906738
-0.117625,0.041983,-0.012825,-5.737305,-2.624512,20.019531
-0.115183,0.056143,-0.025764,-12.756348,-8.544922,15.991211
-0.140086,0.048331,0.013054,-9.826660,-13.671875,23.986816
-0.132029,0.009024,-0.030891,-12.084961,-3.479004,19.531250
-0.141062,0.065421,-0.000618,-9.887695,2.746582,28.015137
-0.105418,0.003897,-0.007209,-9.460449,0.732422,28.991699
-0.125193,0.035147,0.013298,-13.549805,-2.929688,31.250000
-0.051219,0.096182,-0.007698,-9.765625,-2.258301,34.484863
-0.032176,-0.010751,0.022820,-11.352539,7.751465,24.414062
-0.065867,0.038077,0.025750,0.976562,10.498047,30.944824
-0.049021,0.012686,0.011101,-4.943848,0.122070,33.569336
-0.050730,0.046622,0.004998,-6.774902,-1.159668,32.714844
-0.070750,0.021475,0.017937,-3.356934,-5.615234,34.484863
-0.056590,0.020743,0.019158,-11.657715,-9.399414,29.785156
-0.082469,0.024405,0.008416,-7.019043,-0.671387,34.729004
-0.036326,0.008780,0.009880,-10.925293,-6.652832,31.738281
-0.079295,0.038565,0.007683,-8.850098,-5.737305,34.545898
-0.028025,0.011465,0.015252,-7.568359,-3.967285,29.907227
-0.062205,0.042960,0.010125,-12.634277,-5.310059,28.137207
-0.063181,0.030997,0.035759,-7.934570,-2.746582,31.066895
-0.049754,0.024161,0.031365,-11.535645,-6.591797,31.555176
-0.073191,0.019278,0.053093,-9.155273,-5.371094,31.555176
-0.029246,0.017081,-0.004036,-10.375977,-8.666992,34.423828
-0.067576,0.029532,0.033318,-11.535645,-1.770020,31.005859
-0.034617,0.032706,-0.005500,-8.605957,-3.295898,34.301758
-0.098094,0.042227,0.020623,-12.634277,-3.295898,29.113770
-0.055125,0.033194,0.019402,-8.361816,-2.929688,33.691406
-0.069773,0.046622,0.024773,-11.962891,-4.882812,34.057617
-0.040476,0.024161,0.016961,-10.681152,-3.112793,30.151367
-0.059031,0.041983,0.008416,-8.728027,-1.953125,33.508301
-0.041453,0.044669,0.003289,-11.230469,-0.793457,31.127930
-0.039500,0.020010,0.040886,-10.498047,-0.732422,32.165527
0.001760,-0.003671,-0.140266,-33.874512,45.227051,28.869629
-0.049510,-0.006113,0.178337,4.272461,52.978516,36.621094
0.025197,-0.001474,0.027214,-20.263672,-67.138672,25.085449
